* Measurement data measured by REW V5.31.3
* Source: EXCL: Headset (USB-C to 3.5mm Headphone Jack Adapter), MICROPHONE (Master Volume), 0, volume: 0.260
* Format: 256k Log Swept Sine, 1 sweep at -12.0 dBFS with no timing reference
* Dated: Feb 9, 2025 9:59:29 PM
* REW Settings:
*  C-weighting compensation: Off
*  Target level: 75.0 dB
* Note: ; 
* Measurement: AKG K701 L7
* Smoothing: 1/6 octave
* Frequency Step: 96 ppo
* Start Frequency: 20.0 Hz
*
* Freq(Hz) SPL(dB) Phase(degrees)
20.141602 84.017 -45.7947
20.287556 84.035 -45.9639
20.434568 84.057 -46.1913
20.582645 84.079 -46.4721
20.731796 84.097 -46.8014
20.882027 84.109 -47.1749
21.033346 84.112 -47.5893
21.185763 84.103 -48.0420
21.339284 84.081 -48.5311
21.493917 84.045 -49.0552
21.649671 83.997 -49.6131
21.806553 83.937 -50.2032
21.964572 83.867 -50.8238
22.123737 83.788 -51.4725
22.284054 83.704 -52.1465
22.445534 83.617 -52.8422
22.608183 83.530 -53.5556
22.772012 83.446 -54.2825
22.937027 83.368 -55.0184
23.103238 83.299 -55.7589
23.270654 83.240 -56.4998
23.439282 83.195 -57.2373
23.609133 83.165 -57.9682
23.780215 83.151 -58.6894
23.952536 83.153 -59.3988
24.126106 83.170 -60.0942
24.300934 83.203 -60.7741
24.477028 83.248 -61.4371
24.654399 83.305 -62.0818
24.833055 83.370 -62.7073
25.013005 83.441 -63.3130
25.194260 83.517 -63.8987
25.376828 83.594 -64.4651
25.560719 83.672 -65.0137
25.745942 83.748 -65.5472
25.932508 83.822 -66.0698
26.120426 83.892 -66.5867
26.309705 83.959 -67.1043
26.500356 84.022 -67.6295
26.692388 84.080 -68.1693
26.885812 84.133 -68.7301
27.080638 84.182 -69.3167
27.276876 84.226 -69.9320
27.474535 84.265 -70.5765
27.673627 84.301 -71.2481
27.874161 84.335 -71.9418
28.076149 84.368 -72.6510
28.279600 84.404 -73.3674
28.484526 84.445 -74.0823
28.690937 84.495 -74.7872
28.898843 84.559 -75.4751
29.108256 84.639 -76.1408
29.319186 84.738 -76.7813
29.531645 84.857 -77.3964
29.745644 84.995 -77.9879
29.961193 85.150 -78.5592
30.178304 85.320 -79.1150
30.396989 85.498 -79.6602
30.617258 85.679 -80.1995
30.839123 85.857 -80.7367
31.062596 86.025 -81.2752
31.287688 86.179 -81.8172
31.514412 86.313 -82.3644
31.742778 86.423 -82.9182
31.972800 86.507 -83.4797
32.204488 86.561 -84.0501
32.437855 86.586 -84.6303
32.672913 86.580 -85.2212
32.909674 86.544 -85.8229
33.148151 86.481 -86.4346
33.388356 86.393 -87.0547
33.630302 86.281 -87.6798
33.874001 86.151 -88.3060
34.119466 86.006 -88.9281
34.366710 85.850 -89.5412
34.615745 85.688 -90.1408
34.866585 85.524 -90.7236
35.119243 85.365 -91.2883
35.373731 85.213 -91.8358
35.630064 85.074 -92.3688
35.888254 84.950 -92.8916
36.148315 84.845 -93.4092
36.410261 84.760 -93.9266
36.674104 84.697 -94.4477
36.939860 84.656 -94.9750
37.207542 84.637 -95.5094
37.477163 84.640 -96.0501
37.748738 84.665 -96.5955
38.022281 84.712 -97.1431
38.297806 84.779 -97.6905
38.575327 84.867 -98.2354
38.854860 84.974 -98.7758
39.136419 85.101 -99.3102
39.420017 85.245 -99.8372
39.705671 85.405 -100.3554
39.993395 85.581 -100.8636
40.283203 85.772 -101.3607
40.575112 85.975 -101.8457
40.869136 86.189 -102.3183
41.165290 86.412 -102.7786
41.463591 86.643 -103.2277
41.764053 86.879 -103.6671
42.066693 87.118 -104.0993
42.371525 87.358 -104.5268
42.678567 87.597 -104.9526
42.987834 87.833 -105.3795
43.299341 88.063 -105.8106
43.613106 88.285 -106.2488
43.929145 88.498 -106.6970
44.247473 88.700 -107.1580
44.568109 88.890 -107.6339
44.891068 89.066 -108.1259
45.216367 89.228 -108.6338
45.544023 89.373 -109.1561
45.874054 89.502 -109.6892
46.206476 89.614 -110.2288
46.541307 89.708 -110.7695
46.878565 89.784 -111.3058
47.218266 89.842 -111.8329
47.560429 89.883 -112.3470
47.905072 89.908 -112.8456
48.252212 89.918 -113.3278
48.601867 89.916 -113.7944
48.954056 89.901 -114.2475
49.308798 89.878 -114.6900
49.666109 89.846 -115.1255
50.026010 89.810 -115.5570
50.388520 89.769 -115.9868
50.753656 89.726 -116.4158
51.121437 89.683 -116.8434
51.491884 89.641 -117.2683
51.865016 89.602 -117.6880
52.240851 89.566 -118.1001
52.619410 89.533 -118.5023
53.000712 89.505 -118.8925
53.384777 89.481 -119.2695
53.771625 89.460 -119.6328
54.161276 89.441 -119.9832
54.553751 89.424 -120.3224
54.949070 89.407 -120.6533
55.347254 89.390 -120.9795
55.748323 89.373 -121.3047
56.152298 89.353 -121.6320
56.559201 89.332 -121.9632
56.969052 89.310 -122.2984
57.381873 89.286 -122.6363
57.797686 89.260 -122.9742
58.216512 89.234 -123.3084
58.638373 89.206 -123.6346
59.063291 89.176 -123.9483
59.491288 89.145 -124.2452
59.922386 89.112 -124.5215
60.356608 89.076 -124.7751
60.793977 89.038 -125.0058
61.234515 88.999 -125.2156
61.678246 88.959 -125.4089
62.125192 88.919 -125.5914
62.575377 88.881 -125.7694
63.028824 88.845 -125.9485
63.485557 88.811 -126.1335
63.945599 88.782 -126.3276
64.408975 88.757 -126.5329
64.875709 88.736 -126.7503
65.345825 88.720 -126.9797
65.819348 88.709 -127.2200
66.296302 88.703 -127.4694
66.776713 88.702 -127.7258
67.260604 88.705 -127.9874
67.748002 88.712 -128.2528
68.238932 88.723 -128.5218
68.733420 88.737 -128.7950
69.231490 88.755 -129.0737
69.733170 88.775 -129.3595
70.238485 88.797 -129.6536
70.747463 88.821 -129.9563
71.260128 88.847 -130.2675
71.776508 88.874 -130.5864
72.296630 88.902 -130.9123
72.820521 88.931 -131.2442
73.348209 88.961 -131.5810
73.879720 88.991 -131.9216
74.415083 89.021 -132.2647
74.954326 89.052 -132.6091
75.497475 89.082 -132.9538
76.044561 89.112 -133.2976
76.595612 89.140 -133.6400
77.150655 89.167 -133.9803
77.709720 89.191 -134.3189
78.272837 89.213 -134.6561
78.840034 89.230 -134.9928
79.411342 89.244 -135.3300
79.986789 89.253 -135.6688
80.566406 89.258 -136.0099
81.150224 89.258 -136.3535
81.738272 89.255 -136.6991
82.330581 89.249 -137.0456
82.927182 89.241 -137.3918
83.528107 89.232 -137.7364
84.133386 89.225 -138.0784
84.743051 89.221 -138.4176
85.357134 89.224 -138.7539
85.975667 89.237 -139.0876
86.598682 89.263 -139.4189
87.226212 89.305 -139.7482
87.858289 89.367 -140.0756
88.494946 89.451 -140.4009
89.136217 89.559 -140.7237
89.782135 89.692 -141.0434
90.432733 89.849 -141.3591
91.088046 90.027 -141.6695
91.748108 90.223 -141.9738
92.412952 90.430 -142.2713
93.082615 90.645 -142.5621
93.757130 90.860 -142.8473
94.436533 91.071 -143.1287
95.120859 91.272 -143.4087
95.810144 91.460 -143.6897
96.504423 91.632 -143.9733
97.203734 91.786 -144.2600
97.908112 91.922 -144.5492
98.617595 92.041 -144.8394
99.332219 92.144 -145.1288
100.052021 92.233 -145.4154
100.777039 92.311 -145.6978
101.507311 92.379 -145.9746
102.242875 92.439 -146.2456
102.983769 92.492 -146.5109
103.730032 92.540 -146.7711
104.481702 92.582 -147.0268
105.238820 92.619 -147.2785
106.001424 92.651 -147.5264
106.769554 92.675 -147.7710
107.543250 92.692 -148.0128
108.322553 92.699 -148.2529
109.107503 92.694 -148.4931
109.898141 92.677 -148.7351
110.694508 92.646 -148.9806
111.496646 92.601 -149.2306
112.304596 92.543 -149.4849
113.118402 92.473 -149.7431
113.938104 92.393 -150.0042
114.763747 92.304 -150.2671
115.595372 92.210 -150.5309
116.433024 92.112 -150.7951
117.276746 92.013 -151.0595
118.126581 91.914 -151.3240
118.982575 91.817 -151.5888
119.844772 91.723 -151.8537
120.713217 91.632 -152.1180
121.587954 91.545 -152.3809
122.469031 91.459 -152.6413
123.356492 91.375 -152.8983
124.250384 91.290 -153.1510
125.150753 91.203 -153.3989
126.057647 91.114 -153.6414
126.971113 91.020 -153.8784
127.891198 90.920 -154.1098
128.817950 90.814 -154.3360
129.751418 90.701 -154.5575
130.691651 90.582 -154.7748
131.638696 90.458 -154.9887
132.592604 90.331 -155.1998
133.553425 90.202 -155.4087
134.521208 90.074 -155.6161
135.496004 89.950 -155.8224
136.477864 89.834 -156.0281
137.466839 89.729 -156.2335
138.462981 89.639 -156.4387
139.466340 89.565 -156.6437
140.476971 89.510 -156.8483
141.494925 89.475 -157.0522
142.520256 89.457 -157.2552
143.553016 89.456 -157.4571
144.593260 89.469 -157.6575
145.641043 89.492 -157.8560
146.696418 89.520 -158.0520
147.759441 89.550 -158.2452
148.830166 89.577 -158.4354
149.908651 89.600 -158.6228
150.994951 89.616 -158.8078
152.089123 89.625 -158.9913
153.191223 89.625 -159.1743
154.301310 89.619 -159.3576
155.419441 89.608 -159.5420
156.545674 89.593 -159.7277
157.680069 89.577 -159.9150
158.822683 89.560 -160.1042
159.973578 89.546 -160.2958
161.132813 89.533 -160.4910
162.300447 89.524 -160.6909
163.476543 89.519 -160.8967
164.661162 89.517 -161.1086
165.854364 89.518 -161.3265
167.056213 89.523 -161.5495
168.266772 89.532 -161.7760
169.486102 89.543 -162.0049
170.714268 89.559 -162.2349
171.951334 89.578 -162.4648
173.197364 89.600 -162.6936
174.452424 89.626 -162.9202
175.716578 89.655 -163.1434
176.989893 89.686 -163.3617
178.272434 89.719 -163.5733
179.564270 89.752 -163.7763
180.865467 89.786 -163.9691
182.176092 89.818 -164.1505
183.496216 89.848 -164.3199
184.825905 89.877 -164.4778
186.165229 89.902 -164.6250
187.514259 89.925 -164.7632
188.873065 89.947 -164.8944
190.241717 89.967 -165.0213
191.620287 89.986 -165.1465
193.008847 90.006 -165.2728
194.407468 90.025 -165.4025
195.816225 90.045 -165.5371
197.235190 90.065 -165.6772
198.664438 90.085 -165.8221
200.104042 90.104 -165.9706
201.554078 90.122 -166.1206
203.014622 90.138 -166.2706
204.485750 90.152 -166.4194
205.967538 90.162 -166.5665
207.460064 90.169 -166.7118
208.963405 90.172 -166.8555
210.477640 90.172 -166.9980
212.002848 90.169 -167.1393
213.539108 90.163 -167.2799
215.086500 90.154 -167.4196
216.645105 90.144 -167.5582
218.215005 90.132 -167.6953
219.796281 90.118 -167.8302
221.389015 90.102 -167.9626
222.993292 90.084 -168.0920
224.609193 90.062 -168.2184
226.236804 90.037 -168.3419
227.876209 90.006 -168.4631
229.527494 89.971 -168.5827
231.190745 89.929 -168.7018
232.866048 89.882 -168.8215
234.553491 89.830 -168.9425
236.253163 89.772 -169.0652
237.965150 89.711 -169.1898
239.689544 89.647 -169.3162
241.426433 89.580 -169.4442
243.175909 89.513 -169.5734
244.938062 89.446 -169.7032
246.712984 89.380 -169.8331
248.500768 89.317 -169.9624
250.301507 89.256 -170.0906
252.115295 89.199 -170.2175
253.942226 89.145 -170.3430
255.782396 89.097 -170.4672
257.635901 89.053 -170.5904
259.502837 89.015 -170.7129
261.383301 88.983 -170.8353
263.277392 88.957 -170.9580
265.185209 88.937 -171.0811
267.106850 88.923 -171.2045
269.042417 88.916 -171.3275
270.992009 88.915 -171.4497
272.955729 88.919 -171.5704
274.933678 88.928 -171.6892
276.925961 88.942 -171.8060
278.932681 88.958 -171.9209
280.953942 88.977 -172.0340
282.989850 88.997 -172.1455
285.040511 89.020 -172.2554
287.106032 89.045 -172.3639
289.186521 89.073 -172.4710
291.282086 89.104 -172.5772
293.392836 89.139 -172.6827
295.518881 89.179 -172.7874
297.660333 89.225 -172.8910
299.817302 89.276 -172.9930
301.989902 89.332 -173.0924
304.178245 89.391 -173.1887
306.382446 89.453 -173.2815
308.602620 89.515 -173.3707
310.838882 89.575 -173.4565
313.091348 89.632 -173.5392
315.360137 89.685 -173.6193
317.645367 89.731 -173.6976
319.947156 89.769 -173.7747
322.265625 89.800 -173.8513
324.600895 89.822 -173.9282
326.953086 89.834 -174.0057
329.322323 89.836 -174.0841
331.708729 89.827 -174.1632
334.112427 89.808 -174.2429
336.533543 89.779 -174.3228
338.972204 89.740 -174.4022
341.428536 89.691 -174.4808
343.902668 89.634 -174.5577
346.394729 89.569 -174.6322
348.904848 89.499 -174.7035
351.433156 89.426 -174.7711
353.979786 89.351 -174.8347
356.544869 89.278 -174.8945
359.128540 89.208 -174.9510
361.730934 89.146 -175.0051
364.352185 89.094 -175.0577
366.992431 89.055 -175.1100
369.651810 89.032 -175.1633
372.330459 89.026 -175.2190
375.028519 89.038 -175.2785
377.746130 89.069 -175.3432
380.483434 89.117 -175.4146
383.240574 89.182 -175.4937
386.017693 89.259 -175.5817
388.814937 89.348 -175.6791
391.632450 89.444 -175.7865
394.470380 89.544 -175.9037
397.328875 89.645 -176.0301
400.208084 89.745 -176.1646
403.108157 89.841 -176.3051
406.029245 89.932 -176.4488
408.971500 90.015 -176.5921
411.935076 90.092 -176.7304
414.920127 90.162 -176.8585
417.926810 90.226 -176.9705
420.955280 90.285 -177.0607
424.005695 90.340 -177.1241
427.078215 90.393 -177.1569
430.173000 90.445 -177.1572
433.290211 90.499 -177.1249
436.430010 90.553 -177.0618
439.592562 90.610 -176.9713
442.778031 90.668 -176.8578
445.986583 90.727 -176.7267
449.218386 90.785 -176.5834
452.473607 90.840 -176.4332
455.752418 90.892 -176.2808
459.054987 90.939 -176.1306
462.381489 90.979 -175.9863
465.732096 91.011 -175.8507
469.106983 91.035 -175.7263
472.506325 91.051 -175.6148
475.930301 91.058 -175.5174
479.379088 91.058 -175.4345
482.852867 91.051 -175.3661
486.351817 91.037 -175.3117
489.876123 91.019 -175.2703
493.425968 90.995 -175.2410
497.001536 90.967 -175.2224
500.603014 90.935 -175.2134
504.230589 90.899 -175.2126
507.884452 90.859 -175.2188
511.564792 90.816 -175.2307
515.271802 90.769 -175.2472
519.005673 90.718 -175.2671
522.766602 90.666 -175.2890
526.554785 90.612 -175.3118
530.370418 90.558 -175.3342
534.213700 90.507 -175.3553
538.084833 90.461 -175.3740
541.984018 90.420 -175.3899
545.911457 90.387 -175.4027
549.867357 90.363 -175.4124
553.851922 90.347 -175.4194
557.865362 90.340 -175.4237
561.907884 90.339 -175.4254
565.979700 90.344 -175.4242
570.081022 90.352 -175.4197
574.212064 90.362 -175.4114
578.373042 90.371 -175.3989
582.564171 90.377 -175.3825
586.785671 90.379 -175.3625
591.037762 90.376 -175.3398
595.320665 90.367 -175.3154
599.634604 90.351 -175.2905
603.979804 90.328 -175.2664
608.356491 90.298 -175.2437
612.764893 90.261 -175.2228
617.205240 90.217 -175.2034
621.677763 90.168 -175.1848
626.182696 90.114 -175.1657
630.720274 90.057 -175.1443
635.290733 89.999 -175.1185
639.894312 89.941 -175.0860
644.531250 89.885 -175.0440
649.201789 89.833 -174.9897
653.906173 89.787 -174.9201
658.644647 89.746 -174.8326
663.417457 89.712 -174.7250
668.224854 89.684 -174.5953
673.067086 89.663 -174.4425
677.944408 89.648 -174.2663
682.857073 89.638 -174.0676
687.805336 89.631 -173.8489
692.789457 89.627 -173.6141
697.809695 89.626 -173.3689
702.866312 89.626 -173.1197
707.959571 89.626 -172.8738
713.089738 89.626 -172.6380
718.257080 89.624 -172.4179
723.461867 89.620 -172.2175
728.704370 89.614 -172.0385
733.984862 89.605 -171.8813
739.303619 89.593 -171.7445
744.660918 89.579 -171.6259
750.057038 89.562 -171.5229
755.492260 89.543 -171.4328
760.966869 89.522 -171.3526
766.481148 89.498 -171.2796
772.035387 89.472 -171.2114
777.629873 89.443 -171.1458
783.264900 89.410 -171.0809
788.940760 89.373 -171.0152
794.657750 89.330 -170.9475
800.416168 89.282 -170.8772
806.216313 89.226 -170.8039
812.058489 89.164 -170.7275
817.943000 89.095 -170.6483
823.870152 89.019 -170.5666
829.840255 88.936 -170.4824
835.853619 88.848 -170.3958
841.910559 88.753 -170.3061
848.011390 88.655 -170.2126
854.156430 88.553 -170.1143
860.346000 88.449 -170.0096
866.580422 88.344 -169.8972
872.860020 88.240 -169.7758
879.185124 88.138 -169.6445
885.556062 88.039 -169.5031
891.973166 87.944 -169.3525
898.436771 87.856 -169.1939
904.947215 87.776 -169.0293
911.504835 87.704 -168.8605
918.109975 87.641 -168.6889
924.762978 87.588 -168.5157
931.464192 87.546 -168.3411
938.213966 87.514 -168.1650
945.012651 87.492 -167.9869
951.860602 87.479 -167.8061
958.758176 87.476 -167.6220
965.705733 87.481 -167.4338
972.703635 87.494 -167.2407
979.752246 87.513 -167.0422
986.851935 87.538 -166.8379
994.003071 87.569 -166.6279
1001.206027 87.605 -166.4127
1008.461179 87.646 -166.1933
1015.768904 87.693 -165.9710
1023.129584 87.745 -165.7469
1030.543603 87.804 -165.5219
1038.011347 87.868 -165.2962
1045.533205 87.940 -165.0692
1053.109569 88.018 -164.8400
1060.740836 88.104 -164.6070
1068.427401 88.196 -164.3685
1076.169666 88.295 -164.1230
1083.968035 88.399 -163.8693
1091.822915 88.507 -163.6067
1099.734713 88.618 -163.3352
1107.703844 88.730 -163.0556
1115.730723 88.842 -162.7692
1123.815768 88.951 -162.4781
1131.959400 89.056 -162.1843
1140.162045 89.157 -161.8900
1148.424129 89.253 -161.5969
1156.746083 89.342 -161.3057
1165.128342 89.425 -161.0157
1173.571343 89.503 -160.7242
1182.075524 89.577 -160.4274
1190.641331 89.647 -160.1201
1199.269209 89.716 -159.7975
1207.959608 89.784 -159.4555
1216.712981 89.855 -159.0928
1225.529785 89.928 -158.7105
1234.410479 90.004 -158.3127
1243.355526 90.084 -157.9052
1252.365393 90.167 -157.4946
1261.440549 90.251 -157.0868
1270.581467 90.336 -156.6867
1279.788624 90.420 -156.2967
1289.062500 90.502 -155.9173
1298.403578 90.580 -155.5464
1307.812346 90.655 -155.1803
1317.289293 90.727 -154.8144
1326.834914 90.795 -154.4441
1336.449707 90.860 -154.0661
1346.134173 90.924 -153.6782
1355.888816 90.986 -153.2797
1365.714145 91.047 -152.8708
1375.610673 91.108 -152.4514
1385.578915 91.169 -152.0214
1395.619391 91.229 -151.5807
1405.732624 91.291 -151.1293
1415.919142 91.353 -150.6688
1426.179476 91.418 -150.2022
1436.514160 91.486 -149.7335
1446.923734 91.558 -149.2678
1457.408740 91.635 -148.8097
1467.969724 91.716 -148.3632
1478.607238 91.802 -147.9306
1489.321836 91.893 -147.5129
1500.114076 91.989 -147.1097
1510.984521 92.089 -146.7194
1521.933737 92.195 -146.3400
1532.962297 92.304 -145.9691
1544.070773 92.417 -145.6045
1555.259747 92.534 -145.2446
1566.529800 92.654 -144.8882
1577.881521 92.777 -144.5347
1589.315501 92.902 -144.1838
1600.832336 93.028 -143.8351
1612.432627 93.157 -143.4885
1624.116978 93.287 -143.1442
1635.886000 93.419 -142.8027
1647.740304 93.553 -142.4648
1659.680509 93.689 -142.1313
1671.707238 93.828 -141.8036
1683.821118 93.970 -141.4831
1696.022780 94.115 -141.1719
1708.312860 94.264 -140.8721
1720.692000 94.417 -140.5858
1733.160843 94.573 -140.3143
1745.720041 94.733 -140.0592
1758.370248 94.896 -139.8215
1771.112124 95.062 -139.6030
1783.946332 95.230 -139.4054
1796.873543 95.399 -139.2303
1809.894429 95.570 -139.0790
1823.009670 95.740 -138.9525
1836.219950 95.911 -138.8510
1849.525956 96.082 -138.7745
1862.928384 96.252 -138.7232
1876.427931 96.423 -138.6978
1890.025301 96.593 -138.6993
1903.721204 96.764 -138.7287
1917.516352 96.935 -138.7874
1931.411466 97.106 -138.8764
1945.407270 97.277 -138.9970
1959.504493 97.446 -139.1508
1973.703870 97.612 -139.3401
1988.006142 97.776 -139.5676
2002.412054 97.935 -139.8366
2016.922357 98.087 -140.1503
2031.537808 98.233 -140.5115
2046.259169 98.369 -140.9220
2061.087206 98.496 -141.3818
2076.022694 98.612 -141.8891
2091.066410 98.717 -142.4406
2106.219139 98.812 -143.0322
2121.481671 98.896 -143.6601
2136.854802 98.971 -144.3212
2152.339333 99.038 -145.0139
2167.936071 99.099 -145.7374
2183.645829 99.155 -146.4917
2199.469427 99.207 -147.2774
2215.407689 99.255 -148.0944
2231.461446 99.300 -148.9419
2247.631536 99.341 -149.8177
2263.918800 99.379 -150.7182
2280.324089 99.413 -151.6388
2296.848258 99.443 -152.5747
2313.492167 99.469 -153.5205
2330.256685 99.490 -154.4711
2347.142685 99.506 -155.4214
2364.151049 99.518 -156.3672
2381.282662 99.526 -157.3052
2398.538418 99.530 -158.2338
2415.919216 99.532 -159.1529
2433.425962 99.530 -160.0634
2451.059570 99.527 -160.9666
2468.820958 99.521 -161.8638
2486.711052 99.514 -162.7560
2504.730786 99.506 -163.6435
2522.881098 99.497 -164.5261
2541.162934 99.487 -165.4029
2559.577248 99.477 -166.2724
2578.125000 99.467 -167.1329
2596.807157 99.460 -167.9831
2615.624692 99.455 -168.8219
2634.578586 99.454 -169.6486
2653.669829 99.458 -170.4625
2672.899414 99.467 -171.2634
2692.268345 99.481 -172.0505
2711.777632 99.502 -172.8228
2731.428290 99.528 -173.5788
2751.221345 99.559 -174.3167
2771.157829 99.594 -175.0346
2791.238781 99.631 -175.7311
2811.465248 99.671 -176.4055
2831.838284 99.710 -177.0576
2852.358952 99.746 -177.6874
2873.028321 99.779 -178.2941
2893.847468 99.806 -178.8762
2914.817480 99.825 -179.4312
2935.939449 99.836 -179.9564
2957.214476 99.836 179.5508
2978.643672 99.827 179.0919
3000.228152 99.807 178.6672
3021.969041 99.777 178.2759
3043.867475 99.738 177.9157
3065.924593 99.690 177.5839
3088.141547 99.633 177.2775
3110.519493 99.568 176.9944
3133.059600 99.495 176.7332
3155.763041 99.415 176.4941
3178.631001 99.328 176.2785
3201.664672 99.234 176.0891
3224.865254 99.136 175.9294
3248.233957 99.032 175.8042
3271.771999 98.925 175.7178
3295.480608 98.816 175.6744
3319.361019 98.705 175.6771
3343.414477 98.594 175.7283
3367.642236 98.484 175.8298
3392.045560 98.376 175.9826
3416.625721 98.273 176.1877
3441.383999 98.175 176.4450
3466.321686 98.085 176.7528
3491.440082 98.005 177.1068
3516.740496 97.937 177.4993
3542.224247 97.883 177.9186
3567.892664 97.846 178.3483
3593.747085 97.825 178.7682
3619.788858 97.822 179.1565
3646.019340 97.835 179.4929
3672.439900 97.860 179.7625
3699.051913 97.895 179.9583
3725.856768 97.936 -179.9180
3752.855862 97.981 -179.8577
3780.050603 98.027 -179.8474
3807.442408 98.074 -179.8731
3835.032705 98.120 -179.9225
3862.822933 98.166 -179.9870
3890.814540 98.212 179.9378
3919.008986 98.258 179.8532
3947.407741 98.303 179.7587
3976.012284 98.347 179.6539
4004.824108 98.388 179.5402
4033.844715 98.424 179.4220
4063.075616 98.456 179.3066
4092.518337 98.482 179.2028
4122.174412 98.502 179.1199
4152.045387 98.517 179.0659
4182.132820 98.528 179.0470
4212.438278 98.535 179.0677
4242.963342 98.539 179.1304
4273.709604 98.541 179.2363
4304.678665 98.541 179.3852
4335.872141 98.541 179.5764
4367.291658 98.541 179.8086
4398.938854 98.541 -179.9197
4430.815378 98.541 -179.6101
4462.922893 98.542 -179.2645
4495.263072 98.543 -178.8852
4527.837601 98.545 -178.4756
4560.648179 98.549 -178.0401
4593.696515 98.555 -177.5850
4626.984334 98.565 -177.1183
4660.513370 98.578 -176.6501
4694.285371 98.595 -176.1924
4728.302098 98.618 -175.7585
4762.565324 98.647 -175.3624
4797.076835 98.682 -175.0172
4831.838432 98.722 -174.7350
4866.851925 98.767 -174.5249
4902.119140 98.815 -174.3924
4937.641916 98.867 -174.3392
4973.422105 98.919 -174.3624
5009.461572 98.970 -174.4552
5045.762195 99.020 -174.6072
5082.325868 99.068 -174.8059
5119.154496 99.114 -175.0382
5156.250000 99.159 -175.2918
5193.614313 99.203 -175.5575
5231.249383 99.248 -175.8304
5269.157173 99.296 -176.1106
5307.339658 99.348 -176.4044
5345.798829 99.405 -176.7230
5384.536691 99.468 -177.0814
5423.555263 99.535 -177.4964
5462.856580 99.605 -177.9843
5502.442691 99.675 -178.5587
5542.315659 99.743 -179.2288
5582.477563 99.805 -179.9984
5622.930497 99.859 179.1343
5663.676569 99.900 178.1765
5704.717904 99.927 177.1407
5746.056642 99.938 176.0437
5787.694937 99.930 174.9062
5829.634960 99.903 173.7517
5871.878898 99.855 172.6058
5914.428953 99.788 171.4959
5957.287343 99.701 170.4498
6000.456303 99.596 169.4959
6043.938083 99.473 168.6625
6087.734950 99.336 167.9773
6131.849187 99.186 167.4669
6176.283094 99.026 167.1560
6221.038987 98.859 167.0662
6266.119200 98.691 167.2144
6311.526083 98.526 167.6104
6357.262002 98.370 168.2557
6403.329344 98.228 169.1411
6449.730508 98.107 170.2457
6496.467914 98.012 171.5360
6543.543998 97.950 172.9669
6590.961215 97.924 174.4833
6638.722037 97.939 176.0235
6686.828954 97.997 177.5226
6735.284473 98.098 178.9167
6784.091120 98.241 -179.8531
6833.251441 98.423 -178.8385
6882.767998 98.639 -178.0812
6932.643372 98.884 -177.6125
6982.880164 99.151 -177.4532
7033.480992 99.434 -177.6141
7084.448495 99.725 -178.0972
7135.785329 100.018 -178.8976
7187.494171 100.305 179.9955
7239.577717 100.582 178.5972
7292.038681 100.843 176.9255
7344.879799 101.083 175.0000
7398.103826 101.300 172.8411
7451.713536 101.490 170.4684
7505.711724 101.651 167.8998
7560.101205 101.781 165.1501
7614.884815 101.879 162.2302
7670.065409 101.943 159.1481
7725.645865 101.970 155.9094
7781.629080 101.958 152.5195
7838.017972 101.901 148.9865
7894.815481 101.796 145.3239
7952.024569 101.636 141.5538
8009.648217 101.417 137.7098
8067.689429 101.131 133.8401
8126.151233 100.775 130.0089
8185.036674 100.343 126.2989
8244.348824 99.834 122.8126
8304.090774 99.247 119.6765
8364.265639 98.585 117.0499
8424.876556 97.853 115.1435
8485.926684 97.060 114.2574
8547.419207 96.218 114.8544
8609.357330 95.346 117.6943
8671.744282 94.468 124.0397
8734.583316 93.619 135.6895
8797.877707 92.843 153.5379
8861.630756 92.192 173.8265
8925.845785 91.713 -169.9044
8990.526143 91.438 -159.5035
9055.675202 91.374 -153.4420
9121.296357 91.496 -150.0963
9187.393031 91.764 -148.4447
9253.968668 92.130 -147.9037
9321.026740 92.552 -148.1416
9388.570742 92.996 -148.9663
9456.604196 93.438 -150.2635
9525.130648 93.858 -151.9621
9594.153671 94.243 -154.0150
9663.676863 94.583 -156.3857
9733.703850 94.869 -159.0411
9804.238280 95.092 -161.9454
9875.283832 95.247 -165.0562
9946.844210 95.327 -168.3215
10018.923143 95.328 -171.6784
10091.524390 95.245 -175.0520
10164.651736 95.077 -178.3573
10238.308993 94.825 178.4977
10312.500000 94.492 175.6072
10387.228626 94.084 173.0605
10462.498767 93.610 170.9348
10538.314345 93.083 169.2868
10614.679315 92.516 168.1461
10691.597657 91.926 167.5077
10769.073381 91.331 167.3293
10847.110526 90.747 167.5327
10925.713161 90.191 168.0106
11004.885382 89.676 168.6406
11084.631318 89.211 169.3002
11164.955126 88.799 169.8804
11245.860993 88.441 170.2946
11327.353138 88.132 170.4802
11409.435808 87.865 170.3960
11492.113283 87.635 170.0167
11575.389873 87.435 169.3265
11659.269920 87.261 168.3134
11743.757796 87.110 166.9653
11828.857906 86.983 165.2672
11914.574686 86.877 163.2000
12000.912606 86.795 160.7393
12087.876166 86.736 157.8565
12175.469900 86.699 154.5186
12263.698373 86.683 150.6894
12352.566187 86.683 146.3307
12442.077974 86.693 141.4037
12532.238400 86.706 135.8708
12623.052165 86.714 129.6980
12714.524005 86.706 122.8580
12806.658687 86.673 115.3343
12899.461015 86.609 107.1257
12992.935827 86.506 98.2549
13087.087996 86.361 88.7747
13181.922430 86.172 78.7774
13277.444074 85.940 68.3989
13373.657907 85.671 57.8142
13470.568945 85.370 47.2232
13568.182241 85.043 36.8268
13666.502883 84.700 26.8003
13765.535996 84.346 17.2750
13865.286744 83.989 8.3307
13965.760328 83.632 0.0002
14066.961984 83.279 -7.7194
14168.896989 82.930 -14.8539
14271.570658 82.584 -21.4401
14374.988342 82.237 -27.5175
14479.155433 81.886 -33.1205
14584.077362 81.526 -38.2739
14689.759598 81.149 -42.9888
14796.207652 80.750 -47.2606
14903.427072 80.326 -51.0701
15011.423448 79.873 -54.3861
15120.202410 79.392 -57.1694
15229.769630 78.888 -59.3787
15340.130819 78.369 -60.9794
15451.291730 77.847 -61.9554
15563.258160 77.337 -62.3229
15676.035944 76.860 -62.1427
15789.630962 76.435 -61.5298
15904.049137 76.078 -60.6482
16019.296433 75.802 -59.6876
16135.378859 75.608 -58.8280
16252.302465 75.490 -58.2063
16370.073348 75.437 -57.8997
16488.697648 75.434 -57.9270
16608.181548 75.470 -58.2614
16728.531278 75.536 -58.8470
16849.753112 75.632 -59.6160
16971.853368 75.764 -60.5059
17094.838414 75.945 -61.4773
17218.714660 76.187 -62.5292
17343.488565 76.501 -63.7071
17469.166632 76.892 -65.1002
17595.755415 77.355 -66.8264
17723.261512 77.874 -69.0105
17851.691571 78.430 -71.7662
17981.052287 79.003 -75.1839
18111.350404 79.569 -79.3257
18242.592715 80.111 -84.2252
18374.786062 80.612 -89.8873
18507.937336 81.059 -96.2892
18642.053479 81.445 -103.3784
18777.141484 81.765 -111.0686
18913.208391 82.017 -119.2319
19050.261296 82.205 -127.6885
19188.307342 82.335 -136.1985
19327.353727 82.413 -144.4595
19467.407699 82.452 -152.1189
19608.476560 82.461 -158.8053
19750.567664 82.453 -164.1679
19893.688419 82.440 -167.9153
20037.846286 82.431 -169.8418
