* Measurement data measured by REW V5.31.3
* Source: EXCL: Headset (USB-C to 3.5mm Headphone Jack Adapter), MICROPHONE (Master Volume), 0, volume: 0.260
* Format: 256k Log Swept Sine, 1 sweep at -12.0 dBFS with no timing reference
* Dated: Feb 9, 2025 10:06:54 PM
* REW Settings:
*  C-weighting compensation: Off
*  Target level: 75.0 dB
* Note: ; 
* Measurement: AKG K701 R9
* Smoothing: 1/6 octave
* Frequency Step: 96 ppo
* Start Frequency: 20.0 Hz
*
* Freq(Hz) SPL(dB) Phase(degrees)
20.141602 81.457 -46.7994
20.287556 81.458 -46.8651
20.434568 81.458 -46.9502
20.582645 81.455 -47.0492
20.731796 81.448 -47.1576
20.882027 81.435 -47.2732
21.033346 81.416 -47.3962
21.185763 81.390 -47.5293
21.339284 81.357 -47.6770
21.493917 81.317 -47.8449
21.649671 81.271 -48.0387
21.806553 81.221 -48.2638
21.964572 81.168 -48.5242
22.123737 81.114 -48.8225
22.284054 81.062 -49.1601
22.445534 81.013 -49.5366
22.608183 80.970 -49.9508
22.772012 80.934 -50.4006
22.937027 80.907 -50.8835
23.103238 80.891 -51.3966
23.270654 80.885 -51.9373
23.439282 80.892 -52.5028
23.609133 80.909 -53.0903
23.780215 80.937 -53.6969
23.952536 80.975 -54.3197
24.126106 81.021 -54.9554
24.300934 81.073 -55.6011
24.477028 81.131 -56.2534
24.654399 81.191 -56.9098
24.833055 81.254 -57.5678
25.013005 81.318 -58.2260
25.194260 81.383 -58.8839
25.376828 81.447 -59.5422
25.560719 81.511 -60.2023
25.745942 81.574 -60.8665
25.932508 81.637 -61.5373
26.120426 81.700 -62.2171
26.309705 81.762 -62.9074
26.500356 81.824 -63.6081
26.692388 81.884 -64.3176
26.885812 81.942 -65.0319
27.080638 81.998 -65.7452
27.276876 82.052 -66.4500
27.474535 82.102 -67.1378
27.673627 82.150 -67.8001
27.874161 82.196 -68.4292
28.076149 82.243 -69.0195
28.279600 82.292 -69.5684
28.484526 82.349 -70.0772
28.690937 82.415 -70.5516
28.898843 82.494 -71.0015
29.108256 82.589 -71.4406
29.319186 82.703 -71.8850
29.531645 82.834 -72.3515
29.745644 82.982 -72.8556
29.961193 83.144 -73.4093
30.178304 83.314 -74.0196
30.396989 83.488 -74.6872
30.617258 83.660 -75.4067
30.839123 83.824 -76.1671
31.062596 83.974 -76.9535
31.287688 84.108 -77.7491
31.514412 84.220 -78.5376
31.742778 84.309 -79.3048
31.972800 84.373 -80.0409
32.204488 84.411 -80.7407
32.437855 84.423 -81.4034
32.672913 84.410 -82.0319
32.909674 84.371 -82.6312
33.148151 84.308 -83.2063
33.388356 84.222 -83.7614
33.630302 84.117 -84.2984
33.874001 83.995 -84.8173
34.119466 83.858 -85.3161
34.366710 83.711 -85.7923
34.615745 83.559 -86.2436
34.866585 83.406 -86.6689
35.119243 83.255 -87.0687
35.373731 83.113 -87.4457
35.630064 82.981 -87.8040
35.888254 82.864 -88.1491
36.148315 82.765 -88.4874
36.410261 82.685 -88.8256
36.674104 82.625 -89.1705
36.939860 82.587 -89.5286
37.207542 82.571 -89.9060
37.477163 82.577 -90.3078
37.748738 82.604 -90.7379
38.022281 82.651 -91.1983
38.297806 82.719 -91.6892
38.575327 82.805 -92.2089
38.854860 82.909 -92.7536
39.136419 83.028 -93.3180
39.420017 83.164 -93.8954
39.705671 83.314 -94.4790
39.993395 83.478 -95.0620
40.283203 83.655 -95.6383
40.575112 83.845 -96.2035
40.869136 84.046 -96.7551
41.165290 84.259 -97.2927
41.463591 84.482 -97.8181
41.764053 84.712 -98.3347
42.066693 84.949 -98.8466
42.371525 85.190 -99.3575
42.678567 85.433 -99.8698
42.987834 85.675 -100.3836
43.299341 85.913 -100.8967
43.613106 86.146 -101.4048
43.929145 86.371 -101.9022
44.247473 86.586 -102.3834
44.568109 86.790 -102.8438
44.891068 86.982 -103.2805
45.216367 87.160 -103.6933
45.544023 87.322 -104.0841
45.874054 87.468 -104.4568
46.206476 87.596 -104.8162
46.541307 87.707 -105.1675
46.878565 87.799 -105.5149
47.218266 87.873 -105.8605
47.560429 87.929 -106.2045
47.905072 87.968 -106.5447
48.252212 87.991 -106.8768
48.601867 87.999 -107.1965
48.954056 87.994 -107.4999
49.308798 87.978 -107.7848
49.666109 87.953 -108.0519
50.026010 87.921 -108.3045
50.388520 87.885 -108.5480
50.753656 87.847 -108.7891
51.121437 87.809 -109.0348
51.491884 87.774 -109.2907
51.865016 87.742 -109.5607
52.240851 87.716 -109.8456
52.619410 87.696 -110.1438
53.000712 87.682 -110.4517
53.384777 87.673 -110.7651
53.771625 87.668 -111.0806
54.161276 87.666 -111.3965
54.553751 87.667 -111.7132
54.949070 87.667 -112.0328
55.347254 87.668 -112.3581
55.748323 87.666 -112.6918
56.152298 87.662 -113.0357
56.559201 87.655 -113.3904
56.969052 87.645 -113.7556
57.381873 87.632 -114.1302
57.797686 87.616 -114.5122
58.216512 87.598 -114.8981
58.638373 87.580 -115.2824
59.063291 87.560 -115.6581
59.491288 87.541 -116.0178
59.922386 87.523 -116.3557
60.356608 87.508 -116.6692
60.793977 87.495 -116.9595
61.234515 87.486 -117.2308
61.678246 87.479 -117.4890
62.125192 87.474 -117.7402
62.575377 87.470 -117.9897
63.028824 87.467 -118.2420
63.485557 87.464 -118.5005
63.945599 87.461 -118.7675
64.408975 87.459 -119.0450
64.875709 87.459 -119.3337
65.345825 87.459 -119.6343
65.819348 87.461 -119.9468
66.296302 87.465 -120.2708
66.776713 87.471 -120.6053
67.260604 87.479 -120.9487
67.748002 87.489 -121.2993
68.238932 87.501 -121.6552
68.733420 87.515 -122.0152
69.231490 87.532 -122.3789
69.733170 87.550 -122.7463
70.238485 87.570 -123.1178
70.747463 87.592 -123.4940
71.260128 87.615 -123.8746
71.776508 87.640 -124.2590
72.296630 87.667 -124.6461
72.820521 87.696 -125.0348
73.348209 87.727 -125.4236
73.879720 87.759 -125.8112
74.415083 87.792 -126.1962
74.954326 87.826 -126.5768
75.497475 87.860 -126.9512
76.044561 87.893 -127.3179
76.595612 87.924 -127.6763
77.150655 87.954 -128.0265
77.709720 87.981 -128.3693
78.272837 88.004 -128.7064
78.840034 88.024 -129.0396
79.411342 88.040 -129.3707
79.986789 88.051 -129.7015
80.566406 88.058 -130.0330
81.150224 88.062 -130.3658
81.738272 88.062 -130.6995
82.330581 88.060 -131.0333
82.927182 88.057 -131.3661
83.528107 88.055 -131.6966
84.133386 88.055 -132.0240
84.743051 88.061 -132.3483
85.357134 88.074 -132.6703
85.975667 88.097 -132.9919
86.598682 88.135 -133.3148
87.226212 88.189 -133.6403
87.858289 88.263 -133.9685
88.494946 88.360 -134.2980
89.136217 88.482 -134.6266
89.782135 88.627 -134.9516
90.432733 88.796 -135.2712
91.088046 88.985 -135.5844
91.748108 89.191 -135.8914
92.412952 89.408 -136.1935
93.082615 89.632 -136.4921
93.757130 89.856 -136.7889
94.436533 90.076 -137.0854
95.120859 90.287 -137.3830
95.810144 90.486 -137.6830
96.504423 90.669 -137.9870
97.203734 90.834 -138.2964
97.908112 90.983 -138.6123
98.617595 91.114 -138.9347
99.332219 91.229 -139.2627
100.052021 91.330 -139.5951
100.777039 91.418 -139.9307
101.507311 91.496 -140.2685
102.242875 91.566 -140.6084
102.983769 91.629 -140.9501
103.730032 91.686 -141.2942
104.481702 91.739 -141.6406
105.238820 91.786 -141.9896
106.001424 91.827 -142.3407
106.769554 91.860 -142.6927
107.543250 91.885 -143.0444
108.322553 91.900 -143.3944
109.107503 91.902 -143.7419
109.898141 91.891 -144.0865
110.694508 91.866 -144.4283
111.496646 91.827 -144.7678
112.304596 91.774 -145.1052
113.118402 91.709 -145.4407
113.938104 91.632 -145.7745
114.763747 91.546 -146.1063
115.595372 91.454 -146.4356
116.433024 91.357 -146.7620
117.276746 91.259 -147.0850
118.126581 91.160 -147.4045
118.982575 91.063 -147.7205
119.844772 90.968 -148.0330
120.713217 90.876 -148.3424
121.587954 90.786 -148.6487
122.469031 90.699 -148.9519
123.356492 90.612 -149.2518
124.250384 90.525 -149.5480
125.150753 90.436 -149.8399
126.057647 90.342 -150.1267
126.971113 90.244 -150.4075
127.891198 90.140 -150.6816
128.817950 90.029 -150.9483
129.751418 89.912 -151.2074
130.691651 89.788 -151.4587
131.638696 89.659 -151.7026
132.592604 89.527 -151.9394
133.553425 89.395 -152.1700
134.521208 89.264 -152.3954
135.496004 89.139 -152.6170
136.477864 89.022 -152.8361
137.466839 88.918 -153.0541
138.462981 88.829 -153.2722
139.466340 88.758 -153.4913
140.476971 88.705 -153.7122
141.494925 88.672 -153.9351
142.520256 88.658 -154.1597
143.553016 88.660 -154.3858
144.593260 88.675 -154.6130
145.641043 88.699 -154.8406
146.696418 88.729 -155.0679
147.759441 88.761 -155.2944
148.830166 88.791 -155.5193
149.908651 88.816 -155.7422
150.994951 88.835 -155.9630
152.089123 88.846 -156.1823
153.191223 88.849 -156.4008
154.301310 88.846 -156.6195
155.419441 88.838 -156.8395
156.545674 88.826 -157.0616
157.680069 88.812 -157.2868
158.822683 88.798 -157.5156
159.973578 88.786 -157.7488
161.132813 88.775 -157.9870
162.300447 88.768 -158.2309
163.476543 88.764 -158.4811
164.661162 88.764 -158.7378
165.854364 88.767 -159.0011
167.056213 88.775 -159.2710
168.266772 88.786 -159.5473
169.486102 88.801 -159.8299
170.714268 88.821 -160.1192
171.951334 88.844 -160.4155
173.197364 88.871 -160.7195
174.452424 88.901 -161.0317
175.716578 88.933 -161.3525
176.989893 88.966 -161.6820
178.272434 88.998 -162.0191
179.564270 89.029 -162.3621
180.865467 89.056 -162.7076
182.176092 89.077 -163.0510
183.496216 89.091 -163.3861
184.825905 89.097 -163.7058
186.165229 89.096 -164.0019
187.514259 89.086 -164.2663
188.873065 89.070 -164.4919
190.241717 89.048 -164.6733
191.620287 89.023 -164.8073
193.008847 88.998 -164.8933
194.407468 88.973 -164.9327
195.816225 88.951 -164.9281
197.235190 88.933 -164.8832
198.664438 88.920 -164.8020
200.104042 88.912 -164.6893
201.554078 88.911 -164.5510
203.014622 88.916 -164.3937
204.485750 88.927 -164.2257
205.967538 88.942 -164.0562
207.460064 88.963 -163.8951
208.963405 88.987 -163.7523
210.477640 89.014 -163.6367
212.002848 89.042 -163.5558
213.539108 89.071 -163.5144
215.086500 89.100 -163.5148
216.645105 89.127 -163.5566
218.215005 89.152 -163.6374
219.796281 89.173 -163.7531
221.389015 89.190 -163.8985
222.993292 89.201 -164.0683
224.609193 89.207 -164.2573
226.236804 89.206 -164.4608
227.876209 89.197 -164.6748
229.527494 89.181 -164.8958
231.190745 89.158 -165.1211
232.866048 89.126 -165.3481
234.553491 89.088 -165.5747
236.253163 89.043 -165.7993
237.965150 88.993 -166.0206
239.689544 88.939 -166.2378
241.426433 88.881 -166.4506
243.175909 88.821 -166.6586
244.938062 88.761 -166.8620
246.712984 88.700 -167.0611
248.500768 88.641 -167.2560
250.301507 88.584 -167.4472
252.115295 88.529 -167.6351
253.942226 88.478 -167.8199
255.782396 88.432 -168.0022
257.635901 88.390 -168.1823
259.502837 88.353 -168.3607
261.383301 88.321 -168.5374
263.277392 88.296 -168.7127
265.185209 88.276 -168.8864
267.106850 88.262 -169.0586
269.042417 88.254 -169.2292
270.992009 88.251 -169.3979
272.955729 88.253 -169.5645
274.933678 88.260 -169.7287
276.925961 88.270 -169.8902
278.932681 88.283 -170.0490
280.953942 88.299 -170.2049
282.989850 88.317 -170.3578
285.040511 88.337 -170.5073
287.106032 88.361 -170.6529
289.186521 88.388 -170.7943
291.282086 88.420 -170.9310
293.392836 88.456 -171.0631
295.518881 88.498 -171.1906
297.660333 88.545 -171.3141
299.817302 88.598 -171.4341
301.989902 88.655 -171.5511
304.178245 88.715 -171.6657
306.382446 88.777 -171.7782
308.602620 88.839 -171.8890
310.838882 88.899 -171.9979
313.091348 88.956 -172.1049
315.360137 89.008 -172.2098
317.645367 89.054 -172.3124
319.947156 89.092 -172.4128
322.265625 89.123 -172.5114
324.600895 89.144 -172.6084
326.953086 89.156 -172.7044
329.322323 89.158 -172.7997
331.708729 89.150 -172.8946
334.112427 89.132 -172.9890
336.533543 89.103 -173.0831
338.972204 89.065 -173.1768
341.428536 89.017 -173.2702
343.902668 88.961 -173.3634
346.394729 88.898 -173.4564
348.904848 88.830 -173.5492
351.433156 88.758 -173.6419
353.979786 88.684 -173.7344
356.544869 88.611 -173.8268
359.128540 88.542 -173.9192
361.730934 88.479 -174.0118
364.352185 88.425 -174.1047
366.992431 88.384 -174.1980
369.651810 88.356 -174.2917
372.330459 88.345 -174.3854
375.028519 88.350 -174.4790
377.746130 88.373 -174.5720
380.483434 88.413 -174.6640
383.240574 88.467 -174.7549
386.017693 88.535 -174.8445
388.814937 88.613 -174.9327
391.632450 88.699 -175.0195
394.470380 88.789 -175.1050
397.328875 88.882 -175.1888
400.208084 88.976 -175.2708
403.108157 89.067 -175.3502
406.029245 89.156 -175.4264
408.971500 89.241 -175.4985
411.935076 89.322 -175.5656
414.920127 89.399 -175.6267
417.926810 89.473 -175.6812
420.955280 89.546 -175.7283
424.005695 89.616 -175.7673
427.078215 89.686 -175.7979
430.173000 89.756 -175.8195
433.290211 89.826 -175.8316
436.430010 89.896 -175.8338
439.592562 89.966 -175.8259
442.778031 90.035 -175.8077
445.986583 90.103 -175.7796
449.218386 90.166 -175.7421
452.473607 90.226 -175.6963
455.752418 90.279 -175.6432
459.054987 90.325 -175.5845
462.381489 90.363 -175.5214
465.732096 90.392 -175.4554
469.106983 90.412 -175.3877
472.506325 90.423 -175.3193
475.930301 90.425 -175.2510
479.379088 90.419 -175.1834
482.852867 90.407 -175.1170
486.351817 90.388 -175.0520
489.876123 90.365 -174.9889
493.425968 90.339 -174.9282
497.001536 90.310 -174.8710
500.603014 90.278 -174.8185
504.230589 90.245 -174.7728
507.884452 90.210 -174.7360
511.564792 90.173 -174.7106
515.271802 90.135 -174.6989
519.005673 90.095 -174.7026
522.766602 90.054 -174.7230
526.554785 90.013 -174.7606
530.370418 89.973 -174.8149
534.213700 89.934 -174.8843
538.084833 89.899 -174.9665
541.984018 89.868 -175.0584
545.911457 89.843 -175.1564
549.867357 89.825 -175.2571
553.851922 89.814 -175.3570
557.865362 89.809 -175.4536
561.907884 89.809 -175.5449
565.979700 89.814 -175.6299
570.081022 89.821 -175.7082
574.212064 89.829 -175.7801
578.373042 89.836 -175.8462
582.564171 89.840 -175.9072
586.785671 89.840 -175.9642
591.037762 89.834 -176.0179
595.320665 89.821 -176.0693
599.634604 89.802 -176.1191
603.979804 89.775 -176.1679
608.356491 89.740 -176.2163
612.764893 89.698 -176.2646
617.205240 89.649 -176.3128
621.677763 89.594 -176.3604
626.182696 89.533 -176.4061
630.720274 89.469 -176.4482
635.290733 89.403 -176.4838
639.894312 89.336 -176.5094
644.531250 89.270 -176.5208
649.201789 89.207 -176.5136
653.906173 89.148 -176.4834
658.644647 89.096 -176.4265
663.417457 89.050 -176.3404
668.224854 89.012 -176.2243
673.067086 88.981 -176.0801
677.944408 88.958 -175.9120
682.857073 88.940 -175.7259
687.805336 88.928 -175.5290
692.789457 88.918 -175.3277
697.809695 88.909 -175.1267
702.866312 88.899 -174.9280
707.959571 88.887 -174.7314
713.089738 88.872 -174.5347
718.257080 88.854 -174.3356
723.461867 88.832 -174.1319
728.704370 88.807 -173.9233
733.984862 88.781 -173.7112
739.303619 88.754 -173.4987
744.660918 88.727 -173.2900
750.057038 88.701 -173.0894
755.492260 88.676 -172.9007
760.966869 88.652 -172.7269
766.481148 88.628 -172.5697
772.035387 88.603 -172.4297
777.629873 88.577 -172.3064
783.264900 88.548 -172.1986
788.940760 88.514 -172.1042
794.657750 88.475 -172.0207
800.416168 88.430 -171.9451
806.216313 88.377 -171.8746
812.058489 88.317 -171.8060
817.943000 88.248 -171.7368
823.870152 88.172 -171.6646
829.840255 88.088 -171.5876
835.853619 87.998 -171.5046
841.910559 87.903 -171.4153
848.011390 87.804 -171.3201
854.156430 87.701 -171.2199
860.346000 87.598 -171.1156
866.580422 87.494 -171.0087
872.860020 87.391 -170.8999
879.185124 87.290 -170.7902
885.556062 87.192 -170.6795
891.973166 87.098 -170.5676
898.436771 87.010 -170.4538
904.947215 86.928 -170.3373
911.504835 86.853 -170.2179
918.109975 86.786 -170.0953
924.762978 86.728 -169.9698
931.464192 86.679 -169.8415
938.213966 86.640 -169.7104
945.012651 86.610 -169.5763
951.860602 86.588 -169.4384
958.758176 86.575 -169.2955
965.705733 86.569 -169.1461
972.703635 86.569 -168.9882
979.752246 86.575 -168.8198
986.851935 86.586 -168.6390
994.003071 86.601 -168.4441
1001.206027 86.622 -168.2341
1008.461179 86.647 -168.0086
1015.768904 86.678 -167.7680
1023.129584 86.714 -167.5134
1030.543603 86.758 -167.2466
1038.011347 86.810 -166.9695
1045.533205 86.869 -166.6841
1053.109569 86.937 -166.3923
1060.740836 87.013 -166.0952
1068.427401 87.098 -165.7936
1076.169666 87.190 -165.4875
1083.968035 87.287 -165.1768
1091.822915 87.389 -164.8608
1099.734713 87.494 -164.5392
1107.703844 87.600 -164.2117
1115.730723 87.705 -163.8783
1123.815768 87.807 -163.5396
1131.959400 87.906 -163.1959
1140.162045 88.000 -162.8474
1148.424129 88.088 -162.4940
1156.746083 88.171 -162.1356
1165.128342 88.249 -161.7721
1173.571343 88.323 -161.4041
1182.075524 88.393 -161.0320
1190.641331 88.462 -160.6570
1199.269209 88.530 -160.2798
1207.959608 88.597 -159.9006
1216.712981 88.664 -159.5183
1225.529785 88.731 -159.1304
1234.410479 88.798 -158.7325
1243.355526 88.864 -158.3193
1252.365393 88.929 -157.8848
1261.440549 88.993 -157.4232
1270.581467 89.056 -156.9304
1279.788624 89.120 -156.4043
1289.062500 89.183 -155.8458
1298.403578 89.248 -155.2586
1307.812346 89.315 -154.6486
1317.289293 89.385 -154.0232
1326.834914 89.457 -153.3898
1336.449707 89.532 -152.7556
1346.134173 89.611 -152.1268
1355.888816 89.691 -151.5085
1365.714145 89.774 -150.9044
1375.610673 89.859 -150.3168
1385.578915 89.944 -149.7469
1395.619391 90.030 -149.1939
1405.732624 90.116 -148.6562
1415.919142 90.202 -148.1313
1426.179476 90.288 -147.6159
1436.514160 90.375 -147.1072
1446.923734 90.464 -146.6030
1457.408740 90.556 -146.1021
1467.969724 90.651 -145.6033
1478.607238 90.752 -145.1057
1489.321836 90.858 -144.6080
1500.114076 90.971 -144.1086
1510.984521 91.091 -143.6066
1521.933737 91.219 -143.1021
1532.962297 91.356 -142.5976
1544.070773 91.501 -142.0983
1555.259747 91.656 -141.6120
1566.529800 91.818 -141.1484
1577.881521 91.987 -140.7176
1589.315501 92.162 -140.3284
1600.832336 92.340 -139.9873
1612.432627 92.520 -139.6978
1624.116978 92.700 -139.4603
1635.886000 92.879 -139.2726
1647.740304 93.057 -139.1310
1659.680509 93.233 -139.0308
1671.707238 93.406 -138.9678
1683.821118 93.578 -138.9380
1696.022780 93.747 -138.9378
1708.312860 93.914 -138.9637
1720.692000 94.078 -139.0114
1733.160843 94.241 -139.0756
1745.720041 94.402 -139.1499
1758.370248 94.560 -139.2279
1771.112124 94.718 -139.3039
1783.946332 94.876 -139.3746
1796.873543 95.034 -139.4400
1809.894429 95.193 -139.5044
1823.009670 95.354 -139.5752
1836.219950 95.517 -139.6626
1849.525956 95.681 -139.7773
1862.928384 95.846 -139.9288
1876.427931 96.010 -140.1245
1890.025301 96.173 -140.3686
1903.721204 96.332 -140.6609
1917.516352 96.486 -140.9979
1931.411466 96.635 -141.3728
1945.407270 96.776 -141.7775
1959.504493 96.911 -142.2035
1973.703870 97.039 -142.6437
1988.006142 97.159 -143.0928
2002.412054 97.272 -143.5477
2016.922357 97.378 -144.0085
2031.537808 97.477 -144.4778
2046.259169 97.569 -144.9606
2061.087206 97.654 -145.4630
2076.022694 97.732 -145.9923
2091.066410 97.802 -146.5560
2106.219139 97.865 -147.1611
2121.481671 97.920 -147.8124
2136.854802 97.966 -148.5115
2152.339333 98.002 -149.2554
2167.936071 98.029 -150.0375
2183.645829 98.046 -150.8483
2199.469427 98.055 -151.6776
2215.407689 98.056 -152.5159
2231.461446 98.050 -153.3553
2247.631536 98.040 -154.1905
2263.918800 98.027 -155.0181
2280.324089 98.011 -155.8366
2296.848258 97.993 -156.6464
2313.492167 97.974 -157.4488
2330.256685 97.955 -158.2458
2347.142685 97.934 -159.0394
2364.151049 97.912 -159.8316
2381.282662 97.888 -160.6234
2398.538418 97.860 -161.4153
2415.919216 97.830 -162.2061
2433.425962 97.795 -162.9932
2451.059570 97.755 -163.7714
2468.820958 97.711 -164.5344
2486.711052 97.662 -165.2747
2504.730786 97.610 -165.9855
2522.881098 97.555 -166.6618
2541.162934 97.500 -167.3002
2559.577248 97.446 -167.9002
2578.125000 97.395 -168.4638
2596.807157 97.350 -168.9955
2615.624692 97.312 -169.5016
2634.578586 97.281 -169.9888
2653.669829 97.259 -170.4626
2672.899414 97.244 -170.9257
2692.268345 97.236 -171.3768
2711.777632 97.236 -171.8109
2731.428290 97.241 -172.2207
2751.221345 97.252 -172.5980
2771.157829 97.269 -172.9361
2791.238781 97.291 -173.2309
2811.465248 97.319 -173.4819
2831.838284 97.351 -173.6922
2852.358952 97.386 -173.8676
2873.028321 97.424 -174.0152
2893.847468 97.461 -174.1423
2914.817480 97.495 -174.2543
2935.939449 97.524 -174.3546
2957.214476 97.547 -174.4440
2978.643672 97.561 -174.5211
3000.228152 97.565 -174.5822
3021.969041 97.559 -174.6229
3043.867475 97.544 -174.6386
3065.924593 97.519 -174.6256
3088.141547 97.487 -174.5819
3110.519493 97.448 -174.5072
3133.059600 97.404 -174.4032
3155.763041 97.357 -174.2729
3178.631001 97.307 -174.1199
3201.664672 97.256 -173.9469
3224.865254 97.204 -173.7561
3248.233957 97.154 -173.5485
3271.771999 97.105 -173.3244
3295.480608 97.059 -173.0852
3319.361019 97.017 -172.8340
3343.414477 96.981 -172.5768
3367.642236 96.950 -172.3223
3392.045560 96.926 -172.0811
3416.625721 96.909 -171.8639
3441.383999 96.896 -171.6792
3466.321686 96.888 -171.5317
3491.440082 96.883 -171.4208
3516.740496 96.881 -171.3417
3542.224247 96.880 -171.2873
3567.892664 96.881 -171.2502
3593.747085 96.885 -171.2252
3619.788858 96.893 -171.2099
3646.019340 96.905 -171.2053
3672.439900 96.921 -171.2139
3699.051913 96.941 -171.2387
3725.856768 96.965 -171.2806
3752.855862 96.991 -171.3373
3780.050603 97.017 -171.4032
3807.442408 97.044 -171.4704
3835.032705 97.071 -171.5308
3862.822933 97.097 -171.5775
3890.814540 97.124 -171.6062
3919.008986 97.152 -171.6145
3947.407741 97.179 -171.6018
3976.012284 97.207 -171.5673
4004.824108 97.235 -171.5101
4033.844715 97.262 -171.4286
4063.075616 97.289 -171.3216
4092.518337 97.316 -171.1882
4122.174412 97.342 -171.0282
4152.045387 97.367 -170.8419
4182.132820 97.392 -170.6295
4212.438278 97.417 -170.3911
4242.963342 97.441 -170.1266
4273.709604 97.465 -169.8358
4304.678665 97.489 -169.5188
4335.872141 97.513 -169.1757
4367.291658 97.536 -168.8072
4398.938854 97.560 -168.4140
4430.815378 97.583 -167.9970
4462.922893 97.605 -167.5571
4495.263072 97.627 -167.0944
4527.837601 97.647 -166.6087
4560.648179 97.667 -166.0995
4593.696515 97.686 -165.5671
4626.984334 97.706 -165.0131
4660.513370 97.728 -164.4411
4694.285371 97.752 -163.8568
4728.302098 97.781 -163.2681
4762.565324 97.815 -162.6844
4797.076835 97.857 -162.1164
4831.838432 97.907 -161.5752
4866.851925 97.966 -161.0714
4902.119140 98.033 -160.6149
4937.641916 98.111 -160.2145
4973.422105 98.197 -159.8774
5009.461572 98.291 -159.6091
5045.762195 98.393 -159.4131
5082.325868 98.502 -159.2903
5119.154496 98.616 -159.2395
5156.250000 98.733 -159.2578
5193.614313 98.854 -159.3410
5231.249383 98.977 -159.4848
5269.157173 99.102 -159.6851
5307.339658 99.229 -159.9392
5345.798829 99.356 -160.2457
5384.536691 99.485 -160.6050
5423.555263 99.615 -161.0191
5462.856580 99.745 -161.4917
5502.442691 99.876 -162.0276
5542.315659 100.007 -162.6322
5582.477563 100.138 -163.3114
5622.930497 100.268 -164.0704
5663.676569 100.396 -164.9140
5704.717904 100.521 -165.8451
5746.056642 100.643 -166.8650
5787.694937 100.758 -167.9725
5829.634960 100.866 -169.1639
5871.878898 100.965 -170.4328
5914.428953 101.052 -171.7698
5957.287343 101.125 -173.1625
6000.456303 101.182 -174.5958
6043.938083 101.222 -176.0516
6087.734950 101.241 -177.5094
6131.849187 101.239 -178.9469
6176.283094 101.214 179.6597
6221.038987 101.166 178.3347
6266.119200 101.096 177.1018
6311.526083 101.005 175.9835
6357.262002 100.894 175.0000
6403.329344 100.765 174.1680
6449.730508 100.622 173.5004
6496.467914 100.470 173.0051
6543.543998 100.312 172.6848
6590.961215 100.155 172.5361
6638.722037 100.004 172.5494
6686.828954 99.865 172.7083
6735.284473 99.746 172.9888
6784.091120 99.654 173.3601
6833.251441 99.594 173.7843
6882.767998 99.573 174.2171
6932.643372 99.595 174.6089
6982.880164 99.661 174.9070
7033.480992 99.773 175.0576
7084.448495 99.925 175.0088
7135.785329 100.115 174.7139
7187.494171 100.333 174.1332
7239.577717 100.570 173.2369
7292.038681 100.818 172.0052
7344.879799 101.066 170.4287
7398.103826 101.305 168.5074
7451.713536 101.524 166.2493
7505.711724 101.716 163.6683
7560.101205 101.874 160.7838
7614.884815 101.990 157.6183
7670.065409 102.058 154.1979
7725.645865 102.074 150.5511
7781.629080 102.031 146.7091
7838.017972 101.927 142.7056
7894.815481 101.756 138.5771
7952.024569 101.517 134.3621
8009.648217 101.207 130.1006
8067.689429 100.824 125.8334
8126.151233 100.369 121.6002
8185.036674 99.843 117.4385
8244.348824 99.246 113.3821
8304.090774 98.581 109.4595
8364.265639 97.851 105.6929
8424.876556 97.061 102.0967
8485.926684 96.218 98.6757
8547.419207 95.329 95.4225
8609.357330 94.408 92.3114
8671.744282 93.474 89.2856
8734.583316 92.552 86.2099
8797.877707 91.684 82.6627
8861.630756 90.921 75.9237
8925.845785 90.323 -82.0360
8990.526143 89.945 -96.6908
9055.675202 89.818 -100.4817
9121.296357 89.933 -103.2208
9187.393031 90.250 -105.6760
9253.968668 90.709 -108.0660
9321.026740 91.253 -110.4939
9388.570742 91.835 -113.0237
9456.604196 92.420 -115.7004
9525.130648 92.983 -118.5559
9594.153671 93.508 -121.6107
9663.676863 93.981 -124.8741
9733.703850 94.394 -128.3444
9804.238280 94.738 -132.0081
9875.283832 95.009 -135.8405
9946.844210 95.202 -139.8059
10018.923143 95.313 -143.8589
10091.524390 95.341 -147.9456
10164.651736 95.287 -152.0060
10238.308993 95.151 -155.9783
10312.500000 94.939 -159.8010
10387.228626 94.654 -163.4180
10462.498767 94.305 -166.7800
10538.314345 93.899 -169.8473
10614.679315 93.446 -172.5906
10691.597657 92.954 -174.9916
10769.073381 92.433 -177.0434
10847.110526 91.894 -178.7505
10925.713161 91.345 179.8705
11004.885382 90.796 178.7915
11084.631318 90.255 177.9721
11164.955126 89.730 177.3613
11245.860993 89.225 176.8994
11327.353138 88.746 176.5214
11409.435808 88.295 176.1621
11492.113283 87.870 175.7611
11575.389873 87.471 175.2681
11659.269920 87.092 174.6471
11743.757796 86.729 173.8793
11828.857906 86.375 172.9637
11914.574686 86.026 171.9152
12000.912606 85.677 170.7613
12087.876166 85.328 169.5363
12175.469900 84.980 168.2734
12263.698373 84.639 166.9966
12352.566187 84.313 165.7126
12442.077974 84.013 164.4049
12532.238400 83.752 163.0322
12623.052165 83.540 161.5317
12714.524005 83.385 159.8276
12806.658687 83.288 157.8431
12899.461015 83.247 155.5132
12992.935827 83.252 152.7933
13087.087996 83.295 149.6639
13181.922430 83.366 146.1284
13277.444074 83.457 142.2084
13373.657907 83.563 137.9372
13470.568945 83.682 133.3517
13568.182241 83.814 128.4879
13666.502883 83.958 123.3777
13765.535996 84.112 118.0491
13865.286744 84.272 112.5266
13965.760328 84.434 106.8346
14066.961984 84.588 100.9995
14168.896989 84.727 95.0520
14271.570658 84.839 89.0294
14374.988342 84.915 82.9763
14479.155433 84.947 76.9454
14584.077362 84.929 70.9952
14689.759598 84.857 65.1881
14796.207652 84.730 59.5844
14903.427072 84.552 54.2379
15011.423448 84.329 49.1913
15120.202410 84.068 44.4732
15229.769630 83.779 40.0992
15340.130819 83.472 36.0732
15451.291730 83.155 32.3908
15563.258160 82.839 29.0396
15676.035944 82.533 26.0005
15789.630962 82.245 23.2495
15904.049137 81.983 20.7601
16019.296433 81.756 18.5082
16135.378859 81.571 16.4740
16252.302465 81.439 14.6407
16370.073348 81.369 12.9902
16488.697648 81.376 11.4941
16608.181548 81.471 10.1048
16728.531278 81.665 8.7485
16849.753112 81.959 7.3235
16971.853368 82.347 5.7057
17094.838414 82.813 3.7618
17218.714660 83.336 1.3660
17343.488565 83.893 -1.5853
17469.166632 84.459 -5.1636
17595.755415 85.013 -9.4065
17723.261512 85.538 -14.3203
17851.691571 86.020 -19.8876
17981.052287 86.450 -26.0746
18111.350404 86.819 -32.8388
18242.592715 87.122 -40.1337
18374.786062 87.356 -47.9108
18507.937336 87.517 -56.1184
18642.053479 87.604 -64.6962
18777.141484 87.617 -73.5670
18913.208391 87.561 -82.6257
19050.261296 87.443 -91.7278
19188.307342 87.275 -100.6772
19327.353727 87.071 -109.2208
19467.407699 86.851 -117.0540
19608.476560 86.636 -123.8448
19750.567664 86.448 -129.2699
19893.688419 86.309 -133.0533
20037.846286 86.235 -134.9966
