* Measurement data measured by REW V5.31.3
* Source: EXCL: Headset (USB-C to 3.5mm Headphone Jack Adapter), MICROPHONE (Master Volume), 0, volume: 0.260
* Format: 256k Log Swept Sine, 1 sweep at -12.0 dBFS with no timing reference
* Dated: Feb 9, 2025 9:58:48 PM
* REW Settings:
*  C-weighting compensation: Off
*  Target level: 75.0 dB
* Note: ; 
* Measurement: AKG K701 L4
* Smoothing: 1/6 octave
* Frequency Step: 96 ppo
* Start Frequency: 20.0 Hz
*
* Freq(Hz) SPL(dB) Phase(degrees)
20.141602 83.497 -46.0141
20.287556 83.514 -46.2543
20.434568 83.536 -46.5734
20.582645 83.559 -46.9597
20.731796 83.583 -47.4018
20.882027 83.604 -47.8894
21.033346 83.620 -48.4147
21.185763 83.631 -48.9720
21.339284 83.634 -49.5573
21.493917 83.630 -50.1680
21.649671 83.618 -50.8015
21.806553 83.598 -51.4551
21.964572 83.570 -52.1253
22.123737 83.534 -52.8075
22.284054 83.493 -53.4962
22.445534 83.446 -54.1851
22.608183 83.395 -54.8679
22.772012 83.343 -55.5385
22.937027 83.291 -56.1919
23.103238 83.243 -56.8246
23.270654 83.199 -57.4349
23.439282 83.164 -58.0232
23.609133 83.139 -58.5918
23.780215 83.126 -59.1450
23.952536 83.127 -59.6877
24.126106 83.142 -60.2260
24.300934 83.171 -60.7654
24.477028 83.213 -61.3109
24.654399 83.268 -61.8665
24.833055 83.332 -62.4344
25.013005 83.403 -63.0158
25.194260 83.479 -63.6105
25.376828 83.557 -64.2173
25.560719 83.636 -64.8343
25.745942 83.713 -65.4594
25.932508 83.787 -66.0905
26.120426 83.857 -66.7257
26.309705 83.922 -67.3635
26.500356 83.983 -68.0024
26.692388 84.039 -68.6411
26.885812 84.091 -69.2782
27.080638 84.139 -69.9121
27.276876 84.184 -70.5407
27.474535 84.228 -71.1619
27.673627 84.272 -71.7734
27.874161 84.319 -72.3732
28.076149 84.369 -72.9599
28.279600 84.427 -73.5332
28.484526 84.495 -74.0943
28.690937 84.575 -74.6458
28.898843 84.669 -75.1914
29.108256 84.779 -75.7359
29.319186 84.905 -76.2842
29.531645 85.046 -76.8407
29.745644 85.201 -77.4085
29.961193 85.365 -77.9889
30.178304 85.536 -78.5810
30.396989 85.709 -79.1821
30.617258 85.879 -79.7880
30.839123 86.042 -80.3935
31.062596 86.193 -80.9937
31.287688 86.328 -81.5843
31.514412 86.442 -82.1626
31.742778 86.533 -82.7274
31.972800 86.597 -83.2792
32.204488 86.632 -83.8199
32.437855 86.637 -84.3526
32.672913 86.610 -84.8807
32.909674 86.552 -85.4082
33.148151 86.465 -85.9392
33.388356 86.351 -86.4780
33.630302 86.213 -87.0287
33.874001 86.056 -87.5950
34.119466 85.886 -88.1797
34.366710 85.707 -88.7840
34.615745 85.526 -89.4074
34.866585 85.348 -90.0469
35.119243 85.179 -90.6977
35.373731 85.023 -91.3536
35.630064 84.884 -92.0082
35.888254 84.767 -92.6562
36.148315 84.671 -93.2941
36.410261 84.599 -93.9204
36.674104 84.550 -94.5358
36.939860 84.523 -95.1421
37.207542 84.518 -95.7414
37.477163 84.531 -96.3351
37.748738 84.562 -96.9232
38.022281 84.610 -97.5049
38.297806 84.675 -98.0785
38.575327 84.757 -98.6426
38.854860 84.859 -99.1968
39.136419 84.979 -99.7419
39.420017 85.120 -100.2800
39.705671 85.281 -100.8139
39.993395 85.460 -101.3461
40.283203 85.656 -101.8782
40.575112 85.867 -102.4101
40.869136 86.089 -102.9402
41.165290 86.321 -103.4657
41.463591 86.559 -103.9836
41.764053 86.800 -104.4919
42.066693 87.043 -104.9897
42.371525 87.286 -105.4783
42.678567 87.525 -105.9602
42.987834 87.760 -106.4386
43.299341 87.987 -106.9166
43.613106 88.206 -107.3961
43.929145 88.414 -107.8769
44.247473 88.610 -108.3573
44.568109 88.794 -108.8338
44.891068 88.963 -109.3027
45.216367 89.118 -109.7605
45.544023 89.257 -110.2047
45.874054 89.381 -110.6345
46.206476 89.488 -111.0503
46.541307 89.578 -111.4544
46.878565 89.652 -111.8501
47.218266 89.709 -112.2416
47.560429 89.751 -112.6337
47.905072 89.778 -113.0309
48.252212 89.791 -113.4372
48.601867 89.792 -113.8546
48.954056 89.781 -114.2828
49.308798 89.761 -114.7191
49.666109 89.732 -115.1587
50.026010 89.695 -115.5959
50.388520 89.652 -116.0256
50.753656 89.604 -116.4442
51.121437 89.553 -116.8513
51.491884 89.501 -117.2490
51.865016 89.450 -117.6411
52.240851 89.402 -118.0317
52.619410 89.358 -118.4235
53.000712 89.319 -118.8167
53.384777 89.285 -119.2086
53.771625 89.257 -119.5942
54.161276 89.235 -119.9675
54.553751 89.216 -120.3232
54.949070 89.200 -120.6575
55.347254 89.185 -120.9684
55.748323 89.169 -121.2566
56.152298 89.150 -121.5244
56.559201 89.127 -121.7759
56.969052 89.100 -122.0157
57.381873 89.068 -122.2491
57.797686 89.032 -122.4806
58.216512 88.992 -122.7140
58.638373 88.951 -122.9516
59.063291 88.909 -123.1943
59.491288 88.867 -123.4420
59.922386 88.828 -123.6934
60.356608 88.792 -123.9464
60.793977 88.759 -124.1984
61.234515 88.730 -124.4465
61.678246 88.704 -124.6887
62.125192 88.681 -124.9241
62.575377 88.660 -125.1532
63.028824 88.642 -125.3778
63.485557 88.627 -125.6007
63.945599 88.613 -125.8248
64.408975 88.603 -126.0528
64.875709 88.595 -126.2868
65.345825 88.590 -126.5283
65.819348 88.589 -126.7781
66.296302 88.592 -127.0362
66.776713 88.598 -127.3021
67.260604 88.607 -127.5750
67.748002 88.620 -127.8544
68.238932 88.636 -128.1396
68.733420 88.654 -128.4305
69.231490 88.675 -128.7274
69.733170 88.697 -129.0305
70.238485 88.721 -129.3402
70.747463 88.746 -129.6566
71.260128 88.771 -129.9791
71.776508 88.798 -130.3070
72.296630 88.824 -130.6395
72.820521 88.851 -130.9759
73.348209 88.878 -131.3162
73.879720 88.906 -131.6608
74.415083 88.934 -132.0100
74.954326 88.962 -132.3636
75.497475 88.990 -132.7209
76.044561 89.017 -133.0806
76.595612 89.044 -133.4410
77.150655 89.068 -133.8006
77.709720 89.091 -134.1582
78.272837 89.110 -134.5132
78.840034 89.127 -134.8651
79.411342 89.139 -135.2138
79.986789 89.149 -135.5596
80.566406 89.154 -135.9027
81.150224 89.157 -136.2437
81.738272 89.156 -136.5830
82.330581 89.152 -136.9212
82.927182 89.147 -137.2587
83.528107 89.140 -137.5957
84.133386 89.135 -137.9323
84.743051 89.133 -138.2686
85.357134 89.137 -138.6042
85.975667 89.150 -138.9389
86.598682 89.176 -139.2723
87.226212 89.218 -139.6037
87.858289 89.279 -139.9323
88.494946 89.363 -140.2576
89.136217 89.470 -140.5789
89.782135 89.601 -140.8962
90.432733 89.755 -141.2095
91.088046 89.929 -141.5192
91.748108 90.119 -141.8257
92.412952 90.322 -142.1292
93.082615 90.532 -142.4294
93.757130 90.743 -142.7259
94.436533 90.950 -143.0182
95.120859 91.149 -143.3061
95.810144 91.336 -143.5902
96.504423 91.507 -143.8712
97.203734 91.661 -144.1501
97.908112 91.797 -144.4272
98.617595 91.916 -144.7023
99.332219 92.017 -144.9749
100.052021 92.104 -145.2440
100.777039 92.177 -145.5091
101.507311 92.241 -145.7702
102.242875 92.297 -146.0284
102.983769 92.347 -146.2852
103.730032 92.392 -146.5427
104.481702 92.433 -146.8027
105.238820 92.470 -147.0660
106.001424 92.502 -147.3327
106.769554 92.528 -147.6021
107.543250 92.546 -147.8732
108.322553 92.555 -148.1451
109.107503 92.552 -148.4170
109.898141 92.537 -148.6881
110.694508 92.508 -148.9576
111.496646 92.466 -149.2249
112.304596 92.411 -149.4889
113.118402 92.345 -149.7487
113.938104 92.268 -150.0033
114.763747 92.183 -150.2520
115.595372 92.092 -150.4945
116.433024 91.998 -150.7311
117.276746 91.902 -150.9626
118.126581 91.806 -151.1901
118.982575 91.712 -151.4152
119.844772 91.620 -151.6393
120.713217 91.530 -151.8640
121.587954 91.444 -152.0905
122.469031 91.359 -152.3194
123.356492 91.276 -152.5509
124.250384 91.192 -152.7844
125.150753 91.107 -153.0194
126.057647 91.019 -153.2546
126.971113 90.926 -153.4888
127.891198 90.829 -153.7208
128.817950 90.725 -153.9496
129.751418 90.614 -154.1746
130.691651 90.497 -154.3958
131.638696 90.375 -154.6136
132.592604 90.249 -154.8286
133.553425 90.121 -155.0415
134.521208 89.993 -155.2533
135.496004 89.870 -155.4645
136.477864 89.755 -155.6759
137.466839 89.651 -155.8877
138.462981 89.561 -156.0999
139.466340 89.488 -156.3125
140.476971 89.433 -156.5248
141.494925 89.398 -156.7362
142.520256 89.380 -156.9460
143.553016 89.379 -157.1534
144.593260 89.391 -157.3581
145.641043 89.412 -157.5600
146.696418 89.440 -157.7590
147.759441 89.468 -157.9556
148.830166 89.496 -158.1499
149.908651 89.519 -158.3425
150.994951 89.535 -158.5338
152.089123 89.545 -158.7244
153.191223 89.547 -158.9149
154.301310 89.543 -159.1057
155.419441 89.534 -159.2973
156.545674 89.521 -159.4902
157.680069 89.507 -159.6853
158.822683 89.493 -159.8834
159.973578 89.479 -160.0856
161.132813 89.468 -160.2925
162.300447 89.460 -160.5045
163.476543 89.455 -160.7212
164.661162 89.453 -160.9421
165.854364 89.455 -161.1663
167.056213 89.460 -161.3932
168.266772 89.469 -161.6220
169.486102 89.482 -161.8521
170.714268 89.497 -162.0827
171.951334 89.516 -162.3126
173.197364 89.539 -162.5406
174.452424 89.564 -162.7653
175.716578 89.593 -162.9851
176.989893 89.624 -163.1984
178.272434 89.657 -163.4040
179.564270 89.690 -163.6007
180.865467 89.723 -163.7878
182.176092 89.756 -163.9650
183.496216 89.786 -164.1322
184.825905 89.814 -164.2896
186.165229 89.840 -164.4378
187.514259 89.863 -164.5778
188.873065 89.884 -164.7108
190.241717 89.903 -164.8387
191.620287 89.922 -164.9634
193.008847 89.940 -165.0867
194.407468 89.959 -165.2105
195.816225 89.977 -165.3362
197.235190 89.996 -165.4646
198.664438 90.014 -165.5964
200.104042 90.032 -165.7320
201.554078 90.049 -165.8710
203.014622 90.064 -166.0130
204.485750 90.077 -166.1571
205.967538 90.088 -166.3025
207.460064 90.094 -166.4484
208.963405 90.098 -166.5944
210.477640 90.098 -166.7403
212.002848 90.094 -166.8861
213.539108 90.088 -167.0318
215.086500 90.079 -167.1774
216.645105 90.068 -167.3228
218.215005 90.054 -167.4676
219.796281 90.039 -167.6112
221.389015 90.022 -167.7528
222.993292 90.002 -167.8916
224.609193 89.978 -168.0269
226.236804 89.951 -168.1582
227.876209 89.919 -168.2855
229.527494 89.881 -168.4090
231.190745 89.838 -168.5297
232.866048 89.790 -168.6489
234.553491 89.737 -168.7675
236.253163 89.680 -168.8866
237.965150 89.619 -169.0067
239.689544 89.556 -169.1277
241.426433 89.492 -169.2496
243.175909 89.427 -169.3722
244.938062 89.362 -169.4951
246.712984 89.299 -169.6181
248.500768 89.237 -169.7412
250.301507 89.179 -169.8644
252.115295 89.123 -169.9877
253.942226 89.072 -170.1113
255.782396 89.025 -170.2355
257.635901 88.984 -170.3603
259.502837 88.947 -170.4859
261.383301 88.917 -170.6122
263.277392 88.893 -170.7387
265.185209 88.875 -170.8652
267.106850 88.863 -170.9913
269.042417 88.858 -171.1165
270.992009 88.859 -171.2409
272.955729 88.865 -171.3647
274.933678 88.875 -171.4880
276.925961 88.889 -171.6107
278.932681 88.906 -171.7329
280.953942 88.925 -171.8543
282.989850 88.946 -171.9747
285.040511 88.969 -172.0939
287.106032 88.994 -172.2117
289.186521 89.022 -172.3280
291.282086 89.053 -172.4427
293.392836 89.089 -172.5557
295.518881 89.130 -172.6668
297.660333 89.177 -172.7758
299.817302 89.229 -172.8825
301.989902 89.286 -172.9866
304.178245 89.346 -173.0882
306.382446 89.409 -173.1871
308.602620 89.471 -173.2836
310.838882 89.532 -173.3779
313.091348 89.590 -173.4701
315.360137 89.642 -173.5607
317.645367 89.689 -173.6497
319.947156 89.728 -173.7374
322.265625 89.759 -173.8240
324.600895 89.781 -173.9095
326.953086 89.794 -173.9941
329.322323 89.797 -174.0778
331.708729 89.789 -174.1607
334.112427 89.771 -174.2428
336.533543 89.742 -174.3244
338.972204 89.703 -174.4054
341.428536 89.654 -174.4858
343.902668 89.596 -174.5653
346.394729 89.531 -174.6434
348.904848 89.460 -174.7197
351.433156 89.385 -174.7936
353.979786 89.309 -174.8645
356.544869 89.234 -174.9322
359.128540 89.162 -174.9967
361.730934 89.099 -175.0587
364.352185 89.045 -175.1191
366.992431 89.005 -175.1795
369.651810 88.981 -175.2416
372.330459 88.974 -175.3072
375.028519 88.985 -175.3785
377.746130 89.015 -175.4575
380.483434 89.062 -175.5459
383.240574 89.125 -175.6453
386.017693 89.200 -175.7568
388.814937 89.285 -175.8809
391.632450 89.376 -176.0175
394.470380 89.469 -176.1655
397.328875 89.562 -176.3225
400.208084 89.651 -176.4852
403.108157 89.735 -176.6487
406.029245 89.811 -176.8067
408.971500 89.879 -176.9517
411.935076 89.939 -177.0748
414.920127 89.991 -177.1672
417.926810 90.038 -177.2200
420.955280 90.082 -177.2268
424.005695 90.124 -177.1838
427.078215 90.168 -177.0915
430.173000 90.216 -176.9547
433.290211 90.270 -176.7816
436.430010 90.329 -176.5829
439.592562 90.395 -176.3700
442.778031 90.466 -176.1534
445.986583 90.539 -175.9424
449.218386 90.614 -175.7439
452.473607 90.686 -175.5630
455.752418 90.755 -175.4024
459.054987 90.817 -175.2633
462.381489 90.871 -175.1452
465.732096 90.917 -175.0470
469.106983 90.952 -174.9671
472.506325 90.978 -174.9038
475.930301 90.994 -174.8554
479.379088 91.001 -174.8204
482.852867 90.999 -174.7971
486.351817 90.990 -174.7841
489.876123 90.975 -174.7801
493.425968 90.954 -174.7837
497.001536 90.928 -174.7940
500.603014 90.898 -174.8100
504.230589 90.863 -174.8308
507.884452 90.825 -174.8557
511.564792 90.782 -174.8841
515.271802 90.735 -174.9152
519.005673 90.686 -174.9482
522.766602 90.633 -174.9820
526.554785 90.580 -175.0154
530.370418 90.527 -175.0472
534.213700 90.476 -175.0764
538.084833 90.430 -175.1021
541.984018 90.390 -175.1239
545.911457 90.358 -175.1417
549.867357 90.335 -175.1561
553.851922 90.320 -175.1676
557.865362 90.314 -175.1770
561.907884 90.314 -175.1848
565.979700 90.321 -175.1908
570.081022 90.330 -175.1947
574.212064 90.341 -175.1960
578.373042 90.350 -175.1942
582.564171 90.358 -175.1890
586.785671 90.361 -175.1806
591.037762 90.359 -175.1694
595.320665 90.350 -175.1562
599.634604 90.335 -175.1417
603.979804 90.312 -175.1269
608.356491 90.282 -175.1122
612.764893 90.245 -175.0982
617.205240 90.201 -175.0846
621.677763 90.152 -175.0712
626.182696 90.099 -175.0573
630.720274 90.043 -175.0418
635.290733 89.986 -175.0236
639.894312 89.929 -175.0010
644.531250 89.875 -174.9721
649.201789 89.824 -174.9347
653.906173 89.778 -174.8863
658.644647 89.738 -174.8241
663.417457 89.704 -174.7454
668.224854 89.676 -174.6473
673.067086 89.654 -174.5273
677.944408 89.636 -174.3831
682.857073 89.622 -174.2135
687.805336 89.611 -174.0183
692.789457 89.602 -173.7994
697.809695 89.595 -173.5603
702.866312 89.589 -173.3071
707.959571 89.585 -173.0475
713.089738 89.581 -172.7899
718.257080 89.576 -172.5425
723.461867 89.571 -172.3121
728.704370 89.564 -172.1031
733.984862 89.555 -171.9177
739.303619 89.544 -171.7557
744.660918 89.531 -171.6155
750.057038 89.516 -171.4943
755.492260 89.498 -171.3889
760.966869 89.478 -171.2961
766.481148 89.456 -171.2124
772.035387 89.431 -171.1351
777.629873 89.403 -171.0616
783.264900 89.371 -170.9899
788.940760 89.335 -170.9188
794.657750 89.294 -170.8471
800.416168 89.247 -170.7745
806.216313 89.194 -170.7005
812.058489 89.134 -170.6253
817.943000 89.066 -170.5490
823.870152 88.992 -170.4718
829.840255 88.911 -170.3941
835.853619 88.825 -170.3159
841.910559 88.732 -170.2371
848.011390 88.636 -170.1568
854.156430 88.535 -170.0741
860.346000 88.433 -169.9874
866.580422 88.329 -169.8951
872.860020 88.225 -169.7957
879.185124 88.122 -169.6878
885.556062 88.023 -169.5708
891.973166 87.927 -169.4442
898.436771 87.837 -169.3081
904.947215 87.754 -169.1629
911.504835 87.679 -169.0092
918.109975 87.613 -168.8479
924.762978 87.557 -168.6799
931.464192 87.511 -168.5059
938.213966 87.475 -168.3265
945.012651 87.450 -168.1420
951.860602 87.434 -167.9525
958.758176 87.428 -167.7576
965.705733 87.431 -167.5569
972.703635 87.441 -167.3500
979.752246 87.459 -167.1365
986.851935 87.483 -166.9166
994.003071 87.513 -166.6907
1001.206027 87.549 -166.4599
1008.461179 87.591 -166.2260
1015.768904 87.638 -165.9908
1023.129584 87.692 -165.7567
1030.543603 87.752 -165.5255
1038.011347 87.818 -165.2984
1045.533205 87.892 -165.0754
1053.109569 87.972 -164.8554
1060.740836 88.058 -164.6360
1068.427401 88.151 -164.4141
1076.169666 88.250 -164.1862
1083.968035 88.353 -163.9493
1091.822915 88.459 -163.7014
1099.734713 88.568 -163.4415
1107.703844 88.678 -163.1701
1115.730723 88.787 -162.8883
1123.815768 88.893 -162.5983
1131.959400 88.996 -162.3022
1140.162045 89.094 -162.0021
1148.424129 89.187 -161.6998
1156.746083 89.274 -161.3965
1165.128342 89.355 -161.0923
1173.571343 89.432 -160.7858
1182.075524 89.504 -160.4738
1190.641331 89.573 -160.1516
1199.269209 89.641 -159.8140
1207.959608 89.709 -159.4562
1216.712981 89.778 -159.0758
1225.529785 89.851 -158.6732
1234.410479 89.927 -158.2523
1243.355526 90.007 -157.8191
1252.365393 90.091 -157.3811
1261.440549 90.177 -156.9458
1270.581467 90.264 -156.5193
1279.788624 90.352 -156.1052
1289.062500 90.437 -155.7047
1298.403578 90.520 -155.3168
1307.812346 90.600 -154.9386
1317.289293 90.677 -154.5662
1326.834914 90.751 -154.1956
1336.449707 90.822 -153.8234
1346.134173 90.890 -153.4473
1355.888816 90.957 -153.0656
1365.714145 91.023 -152.6775
1375.610673 91.088 -152.2824
1385.578915 91.152 -151.8804
1395.619391 91.215 -151.4713
1405.732624 91.279 -151.0557
1415.919142 91.342 -150.6340
1426.179476 91.407 -150.2070
1436.514160 91.473 -149.7758
1446.923734 91.542 -149.3414
1457.408740 91.614 -148.9050
1467.969724 91.690 -148.4678
1478.607238 91.772 -148.0312
1489.321836 91.860 -147.5972
1500.114076 91.954 -147.1682
1510.984521 92.055 -146.7469
1521.933737 92.162 -146.3361
1532.962297 92.275 -145.9382
1544.070773 92.393 -145.5547
1555.259747 92.516 -145.1867
1566.529800 92.642 -144.8343
1577.881521 92.771 -144.4974
1589.315501 92.901 -144.1754
1600.832336 93.032 -143.8676
1612.432627 93.164 -143.5730
1624.116978 93.295 -143.2899
1635.886000 93.426 -143.0159
1647.740304 93.557 -142.7482
1659.680509 93.688 -142.4832
1671.707238 93.819 -142.2175
1683.821118 93.952 -141.9489
1696.022780 94.087 -141.6766
1708.312860 94.225 -141.4017
1720.692000 94.367 -141.1268
1733.160843 94.512 -140.8544
1745.720041 94.662 -140.5863
1758.370248 94.814 -140.3231
1771.112124 94.971 -140.0650
1783.946332 95.131 -139.8131
1796.873543 95.295 -139.5704
1809.894429 95.463 -139.3426
1823.009670 95.634 -139.1363
1836.219950 95.807 -138.9588
1849.525956 95.983 -138.8168
1862.928384 96.160 -138.7159
1876.427931 96.338 -138.6600
1890.025301 96.516 -138.6514
1903.721204 96.692 -138.6897
1917.516352 96.866 -138.7728
1931.411466 97.037 -138.8961
1945.407270 97.204 -139.0540
1959.504493 97.367 -139.2398
1973.703870 97.525 -139.4473
1988.006142 97.678 -139.6719
2002.412054 97.826 -139.9120
2016.922357 97.970 -140.1695
2031.537808 98.109 -140.4496
2046.259169 98.244 -140.7603
2061.087206 98.373 -141.1112
2076.022694 98.498 -141.5116
2091.066410 98.615 -141.9696
2106.219139 98.726 -142.4910
2121.481671 98.828 -143.0782
2136.854802 98.922 -143.7305
2152.339333 99.007 -144.4436
2167.936071 99.083 -145.2106
2183.645829 99.149 -146.0224
2199.469427 99.207 -146.8694
2215.407689 99.258 -147.7419
2231.461446 99.303 -148.6320
2247.631536 99.343 -149.5342
2263.918800 99.380 -150.4449
2280.324089 99.413 -151.3626
2296.848258 99.444 -152.2865
2313.492167 99.473 -153.2166
2330.256685 99.500 -154.1536
2347.142685 99.524 -155.0985
2364.151049 99.546 -156.0521
2381.282662 99.564 -157.0153
2398.538418 99.579 -157.9875
2415.919216 99.588 -158.9671
2433.425962 99.593 -159.9507
2451.059570 99.592 -160.9337
2468.820958 99.585 -161.9102
2486.711052 99.574 -162.8745
2504.730786 99.558 -163.8212
2522.881098 99.539 -164.7458
2541.162934 99.519 -165.6457
2559.577248 99.500 -166.5199
2578.125000 99.482 -167.3699
2596.807157 99.468 -168.1988
2615.624692 99.459 -169.0112
2634.578586 99.456 -169.8117
2653.669829 99.459 -170.6040
2672.899414 99.469 -171.3900
2692.268345 99.485 -172.1695
2711.777632 99.506 -172.9403
2731.428290 99.533 -173.6986
2751.221345 99.563 -174.4398
2771.157829 99.597 -175.1592
2791.238781 99.634 -175.8531
2811.465248 99.672 -176.5186
2831.838284 99.711 -177.1547
2852.358952 99.749 -177.7620
2873.028321 99.784 -178.3425
2893.847468 99.816 -178.8994
2914.817480 99.842 -179.4361
2935.939449 99.860 -179.9552
2957.214476 99.870 179.5417
2978.643672 99.868 179.0551
3000.228152 99.855 178.5872
3021.969041 99.830 178.1415
3043.867475 99.792 177.7228
3065.924593 99.742 177.3356
3088.141547 99.681 176.9843
3110.519493 99.609 176.6724
3133.059600 99.528 176.4016
3155.763041 99.441 176.1726
3178.631001 99.347 175.9846
3201.664672 99.249 175.8363
3224.865254 99.148 175.7269
3248.233957 99.045 175.6558
3271.771999 98.941 175.6227
3295.480608 98.837 175.6270
3319.361019 98.735 175.6672
3343.414477 98.635 175.7411
3367.642236 98.538 175.8453
3392.045560 98.445 175.9769
3416.625721 98.357 176.1327
3441.383999 98.274 176.3105
3466.321686 98.197 176.5085
3491.440082 98.127 176.7246
3516.740496 98.065 176.9561
3542.224247 98.012 177.1981
3567.892664 97.969 177.4436
3593.747085 97.936 177.6835
3619.788858 97.915 177.9086
3646.019340 97.903 178.1113
3672.439900 97.901 178.2870
3699.051913 97.906 178.4351
3725.856768 97.918 178.5585
3752.855862 97.936 178.6625
3780.050603 97.959 178.7531
3807.442408 97.987 178.8356
3835.032705 98.020 178.9124
3862.822933 98.058 178.9827
3890.814540 98.101 179.0427
3919.008986 98.148 179.0866
3947.407741 98.198 179.1086
3976.012284 98.249 179.1051
4004.824108 98.298 179.0760
4033.844715 98.345 179.0257
4063.075616 98.386 178.9620
4092.518337 98.423 178.8951
4122.174412 98.453 178.8356
4152.045387 98.478 178.7932
4182.132820 98.497 178.7757
4212.438278 98.512 178.7888
4242.963342 98.524 178.8362
4273.709604 98.532 178.9197
4304.678665 98.539 179.0398
4335.872141 98.544 179.1967
4367.291658 98.547 179.3901
4398.938854 98.550 179.6199
4430.815378 98.551 179.8858
4462.922893 98.552 -179.8125
4495.263072 98.553 -179.4760
4527.837601 98.554 -179.1064
4560.648179 98.555 -178.7073
4593.696515 98.558 -178.2838
4626.984334 98.563 -177.8436
4660.513370 98.572 -177.3965
4694.285371 98.586 -176.9545
4728.302098 98.605 -176.5312
4762.565324 98.630 -176.1410
4797.076835 98.661 -175.7980
4831.838432 98.698 -175.5151
4866.851925 98.740 -175.3024
4902.119140 98.786 -175.1668
4937.641916 98.836 -175.1110
4973.422105 98.887 -175.1331
5009.461572 98.937 -175.2272
5045.762195 98.987 -175.3839
5082.325868 99.034 -175.5908
5119.154496 99.078 -175.8349
5156.250000 99.121 -176.1037
5193.614313 99.163 -176.3869
5231.249383 99.205 -176.6781
5269.157173 99.249 -176.9762
5307.339658 99.296 -177.2853
5345.798829 99.347 -177.6151
5384.536691 99.403 -177.9795
5423.555263 99.463 -178.3943
5462.856580 99.526 -178.8753
5502.442691 99.590 -179.4358
5542.315659 99.651 179.9149
5582.477563 99.707 179.1724
5622.930497 99.755 178.3383
5663.676569 99.791 177.4194
5704.717904 99.814 176.4277
5746.056642 99.821 175.3796
5787.694937 99.810 174.2954
5829.634960 99.781 173.1981
5871.878898 99.733 172.1129
5914.428953 99.665 171.0670
5957.287343 99.580 170.0881
6000.456303 99.477 169.2047
6043.938083 99.358 168.4448
6087.734950 99.225 167.8359
6131.849187 99.081 167.4042
6176.283094 98.929 167.1734
6221.038987 98.773 167.1633
6266.119200 98.618 167.3882
6311.526083 98.467 167.8545
6357.262002 98.328 168.5592
6403.329344 98.205 169.4883
6449.730508 98.104 170.6156
6496.467914 98.032 171.9031
6543.543998 97.991 173.3025
6590.961215 97.987 174.7577
6638.722037 98.022 176.2080
6686.828954 98.096 177.5923
6735.284473 98.210 178.8525
6784.091120 98.362 179.9367
6833.251441 98.548 -179.1989
6882.767998 98.765 -178.5890
6932.643372 99.007 -178.2591
6982.880164 99.268 -178.2255
7033.480992 99.542 -178.4965
7084.448495 99.823 -179.0733
7135.785329 100.103 -179.9511
7187.494171 100.378 178.8799
7239.577717 100.642 177.4332
7292.038681 100.889 175.7256
7344.879799 101.116 173.7759
7398.103826 101.318 171.6039
7451.713536 101.494 169.2291
7505.711724 101.640 166.6693
7560.101205 101.756 163.9390
7614.884815 101.840 161.0493
7670.065409 101.889 158.0076
7725.645865 101.903 154.8193
7781.629080 101.877 151.4896
7838.017972 101.808 148.0263
7894.815481 101.691 144.4432
7952.024569 101.520 140.7631
8009.648217 101.289 137.0213
8067.689429 100.992 133.2682
8126.151233 100.625 129.5721
8185.036674 100.182 126.0206
8244.348824 99.663 122.7241
8304.090774 99.067 119.8205
8364.265639 98.396 117.4859
8424.876556 97.658 115.9568
8485.926684 96.860 115.5726
8547.419207 96.017 116.8544
8609.357330 95.149 120.6356
8671.744282 94.283 128.1971
8734.583316 93.455 140.9928
8797.877707 92.712 158.7459
8861.630756 92.102 177.0599
8925.845785 91.671 -168.8788
8990.526143 91.445 -159.8106
9055.675202 91.421 -154.3743
9121.296357 91.574 -151.2716
9187.393031 91.862 -149.6686
9253.968668 92.238 -149.0739
9321.026740 92.665 -149.2008
9388.570742 93.113 -149.8804
9456.604196 93.557 -151.0119
9525.130648 93.983 -152.5336
9594.153671 94.378 -154.4054
9663.676863 94.732 -156.5978
9733.703850 95.036 -159.0843
9804.238280 95.283 -161.8362
9875.283832 95.466 -164.8186
9946.844210 95.580 -167.9874
10018.923143 95.617 -171.2870
10091.524390 95.575 -174.6497
10164.651736 95.449 -177.9960
10238.308993 95.240 178.7624
10312.500000 94.949 175.7181
10387.228626 94.581 172.9615
10462.498767 94.144 170.5734
10538.314345 93.649 168.6169
10614.679315 93.108 167.1307
10691.597657 92.537 166.1235
10769.073381 91.952 165.5701
10847.110526 91.370 165.4118
10925.713161 90.807 165.5612
11004.885382 90.276 165.9119
11084.631318 89.788 166.3512
11164.955126 89.349 166.7723
11245.860993 88.960 167.0832
11327.353138 88.621 167.2113
11409.435808 88.326 167.1028
11492.113283 88.070 166.7192
11575.389873 87.850 166.0325
11659.269920 87.661 165.0204
11743.757796 87.499 163.6627
11828.857906 87.364 161.9382
11914.574686 87.255 159.8234
12000.912606 87.171 157.2914
12087.876166 87.113 154.3123
12175.469900 87.077 150.8524
12263.698373 87.062 146.8747
12352.566187 87.064 142.3398
12442.077974 87.078 137.2065
12532.238400 87.095 131.4331
12623.052165 87.110 124.9803
12714.524005 87.112 117.8143
12806.658687 87.094 109.9131
12899.461015 87.049 101.2733
12992.935827 86.972 91.9228
13087.087996 86.858 81.9305
13181.922430 86.707 71.4178
13277.444074 86.521 60.5602
13373.657907 86.306 49.5745
13470.568945 86.067 38.6927
13568.182241 85.811 28.1277
13666.502883 85.548 18.0447
13765.535996 85.284 8.5479
13865.286744 85.025 -0.3185
13965.760328 84.775 -8.5564
14066.961984 84.536 -16.1996
14168.896989 84.308 -23.2993
14271.570658 84.090 -29.9139
14374.988342 83.879 -36.1027
14479.155433 83.670 -41.9200
14584.077362 83.458 -47.4133
14689.759598 83.236 -52.6206
14796.207652 82.999 -57.5696
14903.427072 82.743 -62.2796
15011.423448 82.462 -66.7635
15120.202410 82.154 -71.0283
15229.769630 81.817 -75.0758
15340.130819 81.447 -78.9030
15451.291730 81.044 -82.5012
15563.258160 80.606 -85.8545
15676.035944 80.132 -88.9382
15789.630962 79.620 -91.7181
15904.049137 79.072 -94.1518
16019.296433 78.490 -96.1892
16135.378859 77.879 -97.7722
16252.302465 77.246 -98.8350
16370.073348 76.604 -99.3063
16488.697648 75.970 -99.1153
16608.181548 75.371 -98.2017
16728.531278 74.839 -96.5319
16849.753112 74.418 -94.1245
16971.853368 74.151 -91.0822
17094.838414 74.074 -87.6224
17218.714660 74.205 -84.0819
17343.488565 74.534 -80.8720
17469.166632 75.030 -78.3912
17595.755415 75.646 -76.9398
17723.261512 76.335 -76.6840
17851.691571 77.056 -77.6729
17981.052287 77.775 -79.8797
18111.350404 78.468 -83.2393
18242.592715 79.117 -87.6709
18374.786062 79.709 -93.0869
18507.937336 80.233 -99.3940
18642.053479 80.685 -106.4871
18777.141484 81.062 -114.2402
18913.208391 81.365 -122.4939
19050.261296 81.598 -131.0429
19188.307342 81.767 -139.6273
19327.353727 81.880 -147.9325
19467.407699 81.949 -155.6030
19608.476560 81.983 -162.2738
19750.567664 81.994 -167.6068
19893.688419 81.994 -171.3247
20037.846286 81.992 -173.2333
