* Measurement data measured by REW V5.31.3
* Source: EXCL: Headset (USB-C to 3.5mm Headphone Jack Adapter), MICROPHONE (Master Volume), 0, volume: 0.260
* Format: 256k Log Swept Sine, 1 sweep at -12.0 dBFS with no timing reference
* Dated: Feb 9, 2025 10:05:05 PM
* REW Settings:
*  C-weighting compensation: Off
*  Target level: 75.0 dB
* Note: ; 
* Measurement: AKG K701 R5
* Smoothing: 1/6 octave
* Frequency Step: 96 ppo
* Start Frequency: 20.0 Hz
*
* Freq(Hz) SPL(dB) Phase(degrees)
20.141602 80.956 -38.6868
20.287556 80.947 -38.9914
20.434568 80.935 -39.4019
20.582645 80.917 -39.9084
20.731796 80.893 -40.4995
20.882027 80.863 -41.1627
21.033346 80.824 -41.8849
21.185763 80.780 -42.6524
21.339284 80.730 -43.4515
21.493917 80.675 -44.2682
21.649671 80.619 -45.0892
21.806553 80.563 -45.9019
21.964572 80.510 -46.6949
22.123737 80.462 -47.4588
22.284054 80.421 -48.1865
22.445534 80.388 -48.8731
22.608183 80.365 -49.5168
22.772012 80.352 -50.1178
22.937027 80.349 -50.6791
23.103238 80.356 -51.2048
23.270654 80.372 -51.7008
23.439282 80.396 -52.1732
23.609133 80.428 -52.6285
23.780215 80.465 -53.0730
23.952536 80.509 -53.5123
24.126106 80.558 -53.9521
24.300934 80.612 -54.3975
24.477028 80.672 -54.8532
24.654399 80.737 -55.3242
24.833055 80.807 -55.8150
25.013005 80.883 -56.3302
25.194260 80.964 -56.8736
25.376828 81.050 -57.4480
25.560719 81.139 -58.0546
25.745942 81.231 -58.6925
25.932508 81.324 -59.3578
26.120426 81.415 -60.0442
26.309705 81.505 -60.7426
26.500356 81.590 -61.4419
26.692388 81.669 -62.1295
26.885812 81.743 -62.7931
27.080638 81.810 -63.4211
27.276876 81.872 -64.0044
27.474535 81.929 -64.5373
27.673627 81.983 -65.0182
27.874161 82.038 -65.4499
28.076149 82.096 -65.8397
28.279600 82.161 -66.1988
28.484526 82.237 -66.5410
28.690937 82.326 -66.8821
28.898843 82.432 -67.2374
29.108256 82.555 -67.6211
29.319186 82.696 -68.0443
29.531645 82.855 -68.5146
29.745644 83.027 -69.0348
29.961193 83.211 -69.6036
30.178304 83.400 -70.2157
30.396989 83.590 -70.8623
30.617258 83.775 -71.5329
30.839123 83.949 -72.2160
31.062596 84.108 -72.9007
31.287688 84.246 -73.5774
31.514412 84.359 -74.2393
31.742778 84.445 -74.8818
31.972800 84.500 -75.5034
32.204488 84.524 -76.1052
32.437855 84.516 -76.6902
32.672913 84.477 -77.2626
32.909674 84.408 -77.8273
33.148151 84.313 -78.3893
33.388356 84.195 -78.9534
33.630302 84.058 -79.5236
33.874001 83.908 -80.1028
34.119466 83.750 -80.6932
34.366710 83.589 -81.2954
34.615745 83.429 -81.9089
34.866585 83.276 -82.5315
35.119243 83.133 -83.1603
35.373731 83.003 -83.7915
35.630064 82.888 -84.4213
35.888254 82.790 -85.0462
36.148315 82.710 -85.6638
36.410261 82.649 -86.2722
36.674104 82.607 -86.8707
36.939860 82.584 -87.4582
37.207542 82.580 -88.0336
37.477163 82.593 -88.5950
37.748738 82.625 -89.1399
38.022281 82.675 -89.6656
38.297806 82.743 -90.1705
38.575327 82.830 -90.6547
38.854860 82.934 -91.1205
39.136419 83.058 -91.5727
39.420017 83.199 -92.0179
39.705671 83.357 -92.4628
39.993395 83.530 -92.9130
40.283203 83.716 -93.3717
40.575112 83.914 -93.8391
40.869136 84.122 -94.3124
41.165290 84.338 -94.7874
41.463591 84.561 -95.2593
41.764053 84.789 -95.7245
42.066693 85.023 -96.1814
42.371525 85.258 -96.6305
42.678567 85.495 -97.0742
42.987834 85.731 -97.5153
43.299341 85.962 -97.9558
43.613106 86.186 -98.3959
43.929145 86.401 -98.8330
44.247473 86.605 -99.2626
44.568109 86.797 -99.6788
44.891068 86.974 -100.0754
45.216367 87.138 -100.4475
45.544023 87.287 -100.7927
45.874054 87.422 -101.1113
46.206476 87.543 -101.4065
46.541307 87.650 -101.6838
46.878565 87.744 -101.9500
47.218266 87.824 -102.2122
47.560429 87.891 -102.4770
47.905072 87.945 -102.7500
48.252212 87.987 -103.0354
48.601867 88.017 -103.3364
48.954056 88.036 -103.6554
49.308798 88.044 -103.9934
49.666109 88.043 -104.3500
50.026010 88.033 -104.7231
50.388520 88.014 -105.1084
50.753656 87.988 -105.5003
51.121437 87.954 -105.8931
51.491884 87.915 -106.2818
51.865016 87.872 -106.6642
52.240851 87.827 -107.0409
52.619410 87.783 -107.4157
53.000712 87.741 -107.7949
53.384777 87.706 -108.1856
53.771625 87.678 -108.5943
54.161276 87.659 -109.0250
54.553751 87.650 -109.4782
54.949070 87.649 -109.9508
55.347254 87.655 -110.4367
55.748323 87.664 -110.9286
56.152298 87.676 -111.4194
56.559201 87.685 -111.9036
56.969052 87.691 -112.3778
57.381873 87.692 -112.8402
57.797686 87.688 -113.2895
58.216512 87.678 -113.7236
58.638373 87.664 -114.1390
59.063291 87.646 -114.5311
59.491288 87.626 -114.8951
59.922386 87.605 -115.2285
60.356608 87.585 -115.5326
60.793977 87.566 -115.8125
61.234515 87.548 -116.0765
61.678246 87.531 -116.3334
62.125192 87.515 -116.5905
62.575377 87.500 -116.8527
63.028824 87.484 -117.1221
63.485557 87.469 -117.3992
63.945599 87.454 -117.6832
64.408975 87.441 -117.9725
64.875709 87.430 -118.2661
65.345825 87.423 -118.5628
65.819348 87.420 -118.8626
66.296302 87.423 -119.1655
66.776713 87.431 -119.4716
67.260604 87.445 -119.7804
67.748002 87.462 -120.0911
68.238932 87.483 -120.4031
68.733420 87.506 -120.7161
69.231490 87.532 -121.0308
69.733170 87.558 -121.3486
70.238485 87.585 -121.6703
70.747463 87.612 -121.9966
71.260128 87.640 -122.3268
71.776508 87.668 -122.6599
72.296630 87.697 -122.9942
72.820521 87.726 -123.3281
73.348209 87.756 -123.6605
73.879720 87.787 -123.9911
74.415083 87.819 -124.3201
74.954326 87.852 -124.6481
75.497475 87.885 -124.9757
76.044561 87.918 -125.3031
76.595612 87.951 -125.6303
77.150655 87.983 -125.9576
77.709720 88.013 -126.2853
78.272837 88.042 -126.6143
78.840034 88.067 -126.9457
79.411342 88.089 -127.2807
79.986789 88.107 -127.6199
80.566406 88.121 -127.9636
81.150224 88.132 -128.3115
81.738272 88.139 -128.6627
82.330581 88.144 -129.0166
82.927182 88.147 -129.3720
83.528107 88.150 -129.7283
84.133386 88.155 -130.0845
84.743051 88.165 -130.4397
85.357134 88.181 -130.7928
85.975667 88.208 -131.1434
86.598682 88.249 -131.4910
87.226212 88.305 -131.8359
87.858289 88.382 -132.1788
88.494946 88.479 -132.5208
89.136217 88.600 -132.8629
89.782135 88.745 -133.2061
90.432733 88.912 -133.5508
91.088046 89.099 -133.8967
91.748108 89.302 -134.2430
92.412952 89.517 -134.5885
93.082615 89.739 -134.9317
93.757130 89.962 -135.2711
94.436533 90.180 -135.6056
95.120859 90.388 -135.9348
95.810144 90.584 -136.2582
96.504423 90.764 -136.5762
97.203734 90.926 -136.8891
97.908112 91.070 -137.1972
98.617595 91.196 -137.5011
99.332219 91.307 -137.8014
100.052021 91.403 -138.0986
100.777039 91.488 -138.3930
101.507311 91.562 -138.6850
102.242875 91.629 -138.9745
102.983769 91.690 -139.2616
103.730032 91.746 -139.5460
104.481702 91.796 -139.8279
105.238820 91.842 -140.1077
106.001424 91.882 -140.3860
106.769554 91.915 -140.6635
107.543250 91.939 -140.9411
108.322553 91.953 -141.2197
109.107503 91.954 -141.5000
109.898141 91.943 -141.7831
110.694508 91.918 -142.0692
111.496646 91.881 -142.3587
112.304596 91.832 -142.6510
113.118402 91.772 -142.9457
113.938104 91.704 -143.2424
114.763747 91.629 -143.5409
115.595372 91.549 -143.8411
116.433024 91.467 -144.1435
117.276746 91.384 -144.4483
118.126581 91.301 -144.7561
118.982575 91.221 -145.0673
119.844772 91.143 -145.3817
120.713217 91.067 -145.6994
121.587954 90.994 -146.0202
122.469031 90.923 -146.3444
123.356492 90.852 -146.6721
124.250384 90.779 -147.0035
125.150753 90.704 -147.3383
126.057647 90.625 -147.6762
126.971113 90.541 -148.0165
127.891198 90.450 -148.3586
128.817950 90.352 -148.7020
129.751418 90.246 -149.0461
130.691651 90.133 -149.3901
131.638696 90.013 -149.7325
132.592604 89.889 -150.0715
133.553425 89.761 -150.4054
134.521208 89.634 -150.7325
135.496004 89.510 -151.0519
136.477864 89.393 -151.3634
137.466839 89.287 -151.6673
138.462981 89.194 -151.9637
139.466340 89.118 -152.2527
140.476971 89.061 -152.5343
141.494925 89.022 -152.8082
142.520256 89.002 -153.0744
143.553016 88.998 -153.3331
144.593260 89.008 -153.5848
145.641043 89.027 -153.8309
146.696418 89.053 -154.0727
147.759441 89.081 -154.3116
148.830166 89.108 -154.5491
149.908651 89.130 -154.7865
150.994951 89.146 -155.0252
152.089123 89.156 -155.2668
153.191223 89.158 -155.5128
154.301310 89.155 -155.7645
155.419441 89.146 -156.0224
156.545674 89.134 -156.2859
157.680069 89.120 -156.5533
158.822683 89.107 -156.8222
159.973578 89.095 -157.0898
161.132813 89.085 -157.3539
162.300447 89.079 -157.6134
163.476543 89.075 -157.8685
164.661162 89.076 -158.1210
165.854364 89.081 -158.3735
167.056213 89.090 -158.6286
168.266772 89.104 -158.8893
169.486102 89.122 -159.1583
170.714268 89.145 -159.4378
171.951334 89.173 -159.7298
173.197364 89.205 -160.0359
174.452424 89.241 -160.3571
175.716578 89.280 -160.6944
176.989893 89.322 -161.0480
178.272434 89.364 -161.4180
179.564270 89.405 -161.8040
180.865467 89.443 -162.2045
182.176092 89.476 -162.6171
183.496216 89.502 -163.0378
184.825905 89.520 -163.4608
186.165229 89.528 -163.8790
187.514259 89.527 -164.2835
188.873065 89.517 -164.6650
190.241717 89.499 -165.0146
191.620287 89.474 -165.3252
193.008847 89.446 -165.5924
194.407468 89.416 -165.8155
195.816225 89.386 -165.9969
197.235190 89.359 -166.1422
198.664438 89.333 -166.2590
200.104042 89.310 -166.3556
201.554078 89.289 -166.4397
203.014622 89.268 -166.5178
204.485750 89.247 -166.5939
205.967538 89.225 -166.6697
207.460064 89.199 -166.7445
208.963405 89.169 -166.8151
210.477640 89.134 -166.8769
212.002848 89.095 -166.9241
213.539108 89.052 -166.9501
215.086500 89.004 -166.9478
216.645105 88.953 -166.9103
218.215005 88.900 -166.8306
219.796281 88.846 -166.7030
221.389015 88.792 -166.5236
222.993292 88.740 -166.2914
224.609193 88.691 -166.0092
226.236804 88.645 -165.6839
227.876209 88.605 -165.3262
229.527494 88.569 -164.9500
231.190745 88.539 -164.5714
232.866048 88.515 -164.2069
234.553491 88.496 -163.8722
236.253163 88.481 -163.5806
237.965150 88.470 -163.3417
239.689544 88.463 -163.1614
241.426433 88.457 -163.0418
243.175909 88.453 -162.9816
244.938062 88.449 -162.9773
246.712984 88.445 -163.0238
248.500768 88.441 -163.1149
250.301507 88.436 -163.2446
252.115295 88.432 -163.4066
253.942226 88.427 -163.5952
255.782396 88.423 -163.8050
257.635901 88.419 -164.0314
259.502837 88.417 -164.2700
261.383301 88.418 -164.5170
263.277392 88.420 -164.7692
265.185209 88.426 -165.0233
267.106850 88.435 -165.2770
269.042417 88.447 -165.5284
270.992009 88.463 -165.7759
272.955729 88.481 -166.0187
274.933678 88.502 -166.2563
276.925961 88.525 -166.4886
278.932681 88.550 -166.7152
280.953942 88.577 -166.9363
282.989850 88.604 -167.1520
285.040511 88.633 -167.3628
287.106032 88.663 -167.5691
289.186521 88.697 -167.7715
291.282086 88.733 -167.9704
293.392836 88.774 -168.1664
295.518881 88.820 -168.3601
297.660333 88.872 -168.5517
299.817302 88.928 -168.7415
301.989902 88.989 -168.9292
304.178245 89.052 -169.1144
306.382446 89.117 -169.2968
308.602620 89.182 -169.4759
310.838882 89.245 -169.6512
313.091348 89.304 -169.8222
315.360137 89.357 -169.9887
317.645367 89.404 -170.1504
319.947156 89.443 -170.3073
322.265625 89.473 -170.4595
324.600895 89.494 -170.6068
326.953086 89.505 -170.7494
329.322323 89.505 -170.8872
331.708729 89.495 -171.0205
334.112427 89.474 -171.1491
336.533543 89.443 -171.2732
338.972204 89.401 -171.3927
341.428536 89.351 -171.5077
343.902668 89.292 -171.6182
346.394729 89.225 -171.7245
348.904848 89.154 -171.8267
351.433156 89.079 -171.9250
353.979786 89.002 -172.0195
356.544869 88.927 -172.1104
359.128540 88.856 -172.1977
361.730934 88.792 -172.2818
364.352185 88.737 -172.3629
366.992431 88.694 -172.4417
369.651810 88.666 -172.5185
372.330459 88.655 -172.5940
375.028519 88.661 -172.6687
377.746130 88.686 -172.7430
380.483434 88.727 -172.8171
383.240574 88.785 -172.8914
386.017693 88.856 -172.9657
388.814937 88.938 -173.0401
391.632450 89.028 -173.1146
394.470380 89.125 -173.1891
397.328875 89.224 -173.2637
400.208084 89.323 -173.3383
403.108157 89.422 -173.4130
406.029245 89.518 -173.4877
408.971500 89.611 -173.5623
411.935076 89.700 -173.6365
414.920127 89.785 -173.7099
417.926810 89.867 -173.7822
420.955280 89.947 -173.8526
424.005695 90.025 -173.9206
427.078215 90.101 -173.9856
430.173000 90.178 -174.0472
433.290211 90.254 -174.1050
436.430010 90.330 -174.1588
439.592562 90.405 -174.2084
442.778031 90.478 -174.2533
445.986583 90.548 -174.2930
449.218386 90.614 -174.3269
452.473607 90.674 -174.3543
455.752418 90.727 -174.3750
459.054987 90.772 -174.3887
462.381489 90.807 -174.3958
465.732096 90.833 -174.3964
469.106983 90.848 -174.3911
472.506325 90.854 -174.3803
475.930301 90.850 -174.3645
479.379088 90.838 -174.3442
482.852867 90.819 -174.3195
486.351817 90.793 -174.2908
489.876123 90.762 -174.2580
493.425968 90.728 -174.2214
497.001536 90.690 -174.1813
500.603014 90.649 -174.1381
504.230589 90.606 -174.0928
507.884452 90.562 -174.0466
511.564792 90.516 -174.0014
515.271802 90.468 -173.9594
519.005673 90.420 -173.9234
522.766602 90.372 -173.8962
526.554785 90.325 -173.8803
530.370418 90.281 -173.8778
534.213700 90.240 -173.8898
538.084833 90.204 -173.9166
541.984018 90.175 -173.9572
545.911457 90.153 -174.0100
549.867357 90.139 -174.0725
553.851922 90.133 -174.1420
557.865362 90.133 -174.2158
561.907884 90.139 -174.2916
565.979700 90.149 -174.3671
570.081022 90.161 -174.4409
574.212064 90.174 -174.5118
578.373042 90.184 -174.5789
582.564171 90.192 -174.6420
586.785671 90.194 -174.7008
591.037762 90.191 -174.7560
595.320665 90.181 -174.8083
599.634604 90.164 -174.8589
603.979804 90.140 -174.9091
608.356491 90.108 -174.9603
612.764893 90.070 -175.0135
617.205240 90.024 -175.0694
621.677763 89.973 -175.1281
626.182696 89.918 -175.1890
630.720274 89.858 -175.2508
635.290733 89.796 -175.3111
639.894312 89.734 -175.3665
644.531250 89.672 -175.4129
649.201789 89.612 -175.4447
653.906173 89.556 -175.4563
658.644647 89.504 -175.4417
663.417457 89.458 -175.3959
668.224854 89.419 -175.3157
673.067086 89.386 -175.2008
677.944408 89.360 -175.0542
682.857073 89.341 -174.8824
687.805336 89.327 -174.6942
692.789457 89.317 -174.4993
697.809695 89.309 -174.3064
702.866312 89.301 -174.1219
707.959571 89.291 -173.9492
713.089738 89.278 -173.7887
718.257080 89.260 -173.6380
723.461867 89.237 -173.4932
728.704370 89.209 -173.3492
733.984862 89.177 -173.2011
739.303619 89.141 -173.0448
744.660918 89.103 -172.8777
750.057038 89.064 -172.6997
755.492260 89.025 -172.5124
760.966869 88.987 -172.3193
766.481148 88.951 -172.1249
772.035387 88.915 -171.9339
777.629873 88.880 -171.7505
783.264900 88.844 -171.5781
788.940760 88.807 -171.4183
794.657750 88.765 -171.2716
800.416168 88.719 -171.1371
806.216313 88.667 -171.0130
812.058489 88.608 -170.8969
817.943000 88.542 -170.7862
823.870152 88.468 -170.6784
829.840255 88.388 -170.5714
835.853619 88.301 -170.4633
841.910559 88.208 -170.3532
848.011390 88.111 -170.2403
854.156430 88.012 -170.1245
860.346000 87.910 -170.0059
866.580422 87.808 -169.8847
872.860020 87.706 -169.7613
879.185124 87.607 -169.6360
885.556062 87.510 -169.5092
891.973166 87.418 -169.3812
898.436771 87.332 -169.2520
904.947215 87.252 -169.1218
911.504835 87.179 -168.9909
918.109975 87.115 -168.8594
924.762978 87.060 -168.7271
931.464192 87.014 -168.5938
938.213966 86.978 -168.4587
945.012651 86.950 -168.3206
951.860602 86.931 -168.1780
958.758176 86.919 -168.0293
965.705733 86.915 -167.8727
972.703635 86.918 -167.7066
979.752246 86.925 -167.5293
986.851935 86.938 -167.3393
994.003071 86.956 -167.1357
1001.206027 86.979 -166.9180
1008.461179 87.006 -166.6862
1015.768904 87.039 -166.4409
1023.129584 87.078 -166.1831
1030.543603 87.123 -165.9142
1038.011347 87.177 -165.6356
1045.533205 87.238 -165.3487
1053.109569 87.307 -165.0548
1060.740836 87.386 -164.7545
1068.427401 87.471 -164.4482
1076.169666 87.565 -164.1358
1083.968035 87.664 -163.8171
1091.822915 87.767 -163.4914
1099.734713 87.874 -163.1584
1107.703844 87.982 -162.8181
1115.730723 88.089 -162.4710
1123.815768 88.194 -162.1184
1131.959400 88.296 -161.7617
1140.162045 88.393 -161.4026
1148.424129 88.485 -161.0426
1156.746083 88.571 -160.6828
1165.128342 88.653 -160.3240
1173.571343 88.730 -159.9671
1182.075524 88.804 -159.6121
1190.641331 88.875 -159.2588
1199.269209 88.944 -158.9060
1207.959608 89.012 -158.5510
1216.712981 89.078 -158.1899
1225.529785 89.144 -157.8170
1234.410479 89.208 -157.4256
1243.355526 89.272 -157.0084
1252.365393 89.335 -156.5591
1261.440549 89.398 -156.0734
1270.581467 89.461 -155.5495
1279.788624 89.526 -154.9887
1289.062500 89.593 -154.3954
1298.403578 89.663 -153.7767
1307.812346 89.735 -153.1414
1317.289293 89.811 -152.4987
1326.834914 89.890 -151.8576
1336.449707 89.972 -151.2258
1346.134173 90.056 -150.6088
1355.888816 90.142 -150.0103
1365.714145 90.229 -149.4315
1375.610673 90.316 -148.8716
1385.578915 90.402 -148.3274
1395.619391 90.488 -147.7948
1405.732624 90.573 -147.2688
1415.919142 90.659 -146.7448
1426.179476 90.744 -146.2196
1436.514160 90.832 -145.6924
1446.923734 90.924 -145.1644
1457.408740 91.020 -144.6391
1467.969724 91.121 -144.1203
1478.607238 91.228 -143.6112
1489.321836 91.341 -143.1133
1500.114076 91.461 -142.6265
1510.984521 91.588 -142.1490
1521.933737 91.722 -141.6792
1532.962297 91.863 -141.2164
1544.070773 92.012 -140.7631
1555.259747 92.168 -140.3248
1566.529800 92.331 -139.9096
1577.881521 92.500 -139.5270
1589.315501 92.674 -139.1853
1600.832336 92.850 -138.8909
1612.432627 93.027 -138.6469
1624.116978 93.203 -138.4530
1635.886000 93.377 -138.3066
1647.740304 93.548 -138.2026
1659.680509 93.717 -138.1349
1671.707238 93.881 -138.0966
1683.821118 94.043 -138.0803
1696.022780 94.202 -138.0787
1708.312860 94.359 -138.0851
1720.692000 94.515 -138.0940
1733.160843 94.671 -138.1012
1745.720041 94.828 -138.1043
1758.370248 94.986 -138.1035
1771.112124 95.147 -138.1015
1783.946332 95.310 -138.1038
1796.873543 95.475 -138.1181
1809.894429 95.642 -138.1537
1823.009670 95.810 -138.2197
1836.219950 95.978 -138.3234
1849.525956 96.143 -138.4684
1862.928384 96.305 -138.6546
1876.427931 96.463 -138.8775
1890.025301 96.615 -139.1295
1903.721204 96.763 -139.4008
1917.516352 96.907 -139.6814
1931.411466 97.047 -139.9638
1945.407270 97.186 -140.2451
1959.504493 97.324 -140.5272
1973.703870 97.461 -140.8170
1988.006142 97.597 -141.1245
2002.412054 97.732 -141.4616
2016.922357 97.864 -141.8401
2031.537808 97.990 -142.2700
2046.259169 98.109 -142.7580
2061.087206 98.219 -143.3069
2076.022694 98.317 -143.9164
2091.066410 98.403 -144.5831
2106.219139 98.475 -145.3016
2121.481671 98.534 -146.0641
2136.854802 98.578 -146.8609
2152.339333 98.609 -147.6805
2167.936071 98.629 -148.5116
2183.645829 98.639 -149.3446
2199.469427 98.642 -150.1738
2215.407689 98.640 -150.9974
2231.461446 98.635 -151.8173
2247.631536 98.629 -152.6377
2263.918800 98.622 -153.4631
2280.324089 98.615 -154.2972
2296.848258 98.606 -155.1421
2313.492167 98.595 -155.9975
2330.256685 98.580 -156.8605
2347.142685 98.561 -157.7265
2364.151049 98.537 -158.5898
2381.282662 98.508 -159.4445
2398.538418 98.474 -160.2859
2415.919216 98.434 -161.1101
2433.425962 98.390 -161.9144
2451.059570 98.342 -162.6961
2468.820958 98.290 -163.4526
2486.711052 98.235 -164.1812
2504.730786 98.178 -164.8799
2522.881098 98.120 -165.5468
2541.162934 98.062 -166.1815
2559.577248 98.005 -166.7844
2578.125000 97.951 -167.3568
2596.807157 97.901 -167.9001
2615.624692 97.856 -168.4153
2634.578586 97.817 -168.9019
2653.669829 97.785 -169.3573
2672.899414 97.759 -169.7783
2692.268345 97.743 -170.1611
2711.777632 97.735 -170.5028
2731.428290 97.737 -170.8026
2751.221345 97.750 -171.0621
2771.157829 97.773 -171.2860
2791.238781 97.805 -171.4804
2811.465248 97.844 -171.6517
2831.838284 97.888 -171.8047
2852.358952 97.935 -171.9417
2873.028321 97.980 -172.0615
2893.847468 98.024 -172.1612
2914.817480 98.063 -172.2370
2935.939449 98.097 -172.2861
2957.214476 98.126 -172.3079
2978.643672 98.148 -172.3047
3000.228152 98.165 -172.2811
3021.969041 98.176 -172.2435
3043.867475 98.181 -172.1982
3065.924593 98.179 -172.1501
3088.141547 98.170 -172.1019
3110.519493 98.155 -172.0529
3133.059600 98.132 -171.9999
3155.763041 98.102 -171.9371
3178.631001 98.068 -171.8580
3201.664672 98.029 -171.7570
3224.865254 97.988 -171.6312
3248.233957 97.947 -171.4811
3271.771999 97.908 -171.3115
3295.480608 97.873 -171.1300
3319.361019 97.842 -170.9459
3343.414477 97.816 -170.7682
3367.642236 97.795 -170.6052
3392.045560 97.778 -170.4629
3416.625721 97.765 -170.3457
3441.383999 97.755 -170.2562
3466.321686 97.748 -170.1956
3491.440082 97.744 -170.1634
3516.740496 97.741 -170.1578
3542.224247 97.740 -170.1753
3567.892664 97.741 -170.2112
3593.747085 97.743 -170.2597
3619.788858 97.748 -170.3154
3646.019340 97.755 -170.3743
3672.439900 97.766 -170.4346
3699.051913 97.781 -170.4970
3725.856768 97.799 -170.5636
3752.855862 97.822 -170.6368
3780.050603 97.847 -170.7174
3807.442408 97.874 -170.8038
3835.032705 97.901 -170.8917
3862.822933 97.929 -170.9749
3890.814540 97.955 -171.0467
3919.008986 97.982 -171.1011
3947.407741 98.007 -171.1339
3976.012284 98.033 -171.1429
4004.824108 98.058 -171.1278
4033.844715 98.082 -171.0889
4063.075616 98.106 -171.0263
4092.518337 98.128 -170.9390
4122.174412 98.149 -170.8250
4152.045387 98.169 -170.6814
4182.132820 98.187 -170.5059
4212.438278 98.204 -170.2970
4242.963342 98.221 -170.0543
4273.709604 98.238 -169.7784
4304.678665 98.255 -169.4703
4335.872141 98.272 -169.1314
4367.291658 98.290 -168.7628
4398.938854 98.307 -168.3656
4430.815378 98.325 -167.9408
4462.922893 98.342 -167.4889
4495.263072 98.359 -167.0104
4527.837601 98.376 -166.5056
4560.648179 98.392 -165.9748
4593.696515 98.409 -165.4187
4626.984334 98.427 -164.8394
4660.513370 98.447 -164.2405
4694.285371 98.471 -163.6282
4728.302098 98.501 -163.0113
4762.565324 98.538 -162.4014
4797.076835 98.582 -161.8115
4831.838432 98.637 -161.2556
4866.851925 98.701 -160.7473
4902.119140 98.775 -160.2992
4937.641916 98.858 -159.9222
4973.422105 98.951 -159.6251
5009.461572 99.051 -159.4144
5045.762195 99.156 -159.2935
5082.325868 99.266 -159.2624
5119.154496 99.377 -159.3173
5156.250000 99.488 -159.4512
5193.614313 99.598 -159.6541
5231.249383 99.706 -159.9146
5269.157173 99.811 -160.2213
5307.339658 99.913 -160.5646
5345.798829 100.013 -160.9373
5384.536691 100.112 -161.3363
5423.555263 100.210 -161.7619
5462.856580 100.309 -162.2178
5502.442691 100.408 -162.7102
5542.315659 100.508 -163.2468
5582.477563 100.608 -163.8355
5622.930497 100.709 -164.4834
5663.676569 100.809 -165.1966
5704.717904 100.907 -165.9790
5746.056642 101.003 -166.8324
5787.694937 101.095 -167.7562
5829.634960 101.182 -168.7475
5871.878898 101.261 -169.8006
5914.428953 101.332 -170.9073
5957.287343 101.392 -172.0568
6000.456303 101.440 -173.2354
6043.938083 101.472 -174.4273
6087.734950 101.489 -175.6144
6131.849187 101.489 -176.7768
6176.283094 101.469 -177.8935
6221.038987 101.431 -178.9430
6266.119200 101.375 -179.9041
6311.526083 101.300 179.2432
6357.262002 101.209 178.5168
6403.329344 101.104 177.9319
6449.730508 100.988 177.4995
6496.467914 100.865 177.2263
6543.543998 100.739 177.1135
6590.961215 100.615 177.1562
6638.722037 100.500 177.3432
6686.828954 100.399 177.6565
6735.284473 100.318 178.0711
6784.091120 100.264 178.5554
6833.251441 100.243 179.0717
6882.767998 100.258 179.5776
6932.643372 100.313 -179.9729
6982.880164 100.409 -179.6272
7033.480992 100.545 -179.4321
7084.448495 100.718 -179.4314
7135.785329 100.923 -179.6642
7187.494171 101.153 179.8376
7239.577717 101.400 179.0496
7292.038681 101.657 177.9561
7344.879799 101.913 176.5497
7398.103826 102.161 174.8306
7451.713536 102.393 172.8052
7505.711724 102.602 170.4852
7560.101205 102.782 167.8858
7614.884815 102.926 165.0248
7670.065409 103.030 161.9221
7725.645865 103.088 158.5988
7781.629080 103.096 155.0782
7838.017972 103.050 151.3856
7894.815481 102.944 147.5500
7952.024569 102.776 143.6046
8009.648217 102.542 139.5878
8067.689429 102.237 135.5433
8126.151233 101.861 131.5204
8185.036674 101.411 127.5725
8244.348824 100.887 123.7571
8304.090774 100.290 120.1346
8364.265639 99.623 116.7697
8424.876556 98.889 113.7347
8485.926684 98.092 111.1171
8547.419207 97.240 109.0362
8609.357330 96.342 107.6760
8671.744282 95.412 107.3599
8734.583316 94.472 108.7315
8797.877707 93.550 113.2530
8861.630756 92.689 124.7030
8925.845785 91.943 151.8581
8990.526143 91.371 -168.1581
9055.675202 91.021 -143.9468
9121.296357 90.915 -133.7022
9187.393031 91.035 -129.3961
9253.968668 91.334 -127.7982
9321.026740 91.753 -127.6491
9388.570742 92.237 -128.3950
9456.604196 92.741 -129.7638
9525.130648 93.234 -131.6083
9594.153671 93.693 -133.8396
9663.676863 94.104 -136.3960
9733.703850 94.454 -139.2269
9804.238280 94.737 -142.2846
9875.283832 94.946 -145.5199
9946.844210 95.080 -148.8802
10018.923143 95.135 -152.3097
10091.524390 95.113 -155.7500
10164.651736 95.016 -159.1431
10238.308993 94.846 -162.4326
10312.500000 94.610 -165.5673
10387.228626 94.314 -168.5017
10462.498767 93.964 -171.1990
10538.314345 93.569 -173.6306
10614.679315 93.138 -175.7774
10691.597657 92.678 -177.6299
10769.073381 92.198 -179.1875
10847.110526 91.707 179.5409
10925.713161 91.211 178.5377
11004.885382 90.717 177.7766
11084.631318 90.231 177.2237
11164.955126 89.756 176.8384
11245.860993 89.297 176.5753
11327.353138 88.855 176.3867
11409.435808 88.430 176.2255
11492.113283 88.022 176.0483
11575.389873 87.627 175.8193
11659.269920 87.244 175.5125
11743.757796 86.869 175.1142
11828.857906 86.499 174.6240
11914.574686 86.130 174.0546
12000.912606 85.760 173.4300
12087.876166 85.389 172.7809
12175.469900 85.020 172.1395
12263.698373 84.657 171.5308
12352.566187 84.309 170.9639
12442.077974 83.988 170.4241
12532.238400 83.705 169.8676
12623.052165 83.473 169.2228
12714.524005 83.300 168.3981
12806.658687 83.189 167.2952
12899.461015 83.137 165.8251
12992.935827 83.136 163.9203
13087.087996 83.175 161.5415
13181.922430 83.243 158.6779
13277.444074 83.329 155.3412
13373.657907 83.428 151.5582
13470.568945 83.536 147.3629
13568.182241 83.652 142.7899
13666.502883 83.778 137.8710
13765.535996 83.916 132.6343
13865.286744 84.064 127.1050
13965.760328 84.224 121.3064
14066.961984 84.392 115.2617
14168.896989 84.564 108.9953
14271.570658 84.734 102.5332
14374.988342 84.896 95.9036
14479.155433 85.042 89.1373
14584.077362 85.166 82.2675
14689.759598 85.261 75.3295
14796.207652 85.324 68.3597
14903.427072 85.349 61.3936
15011.423448 85.336 54.4636
15120.202410 85.283 47.5983
15229.769630 85.189 40.8221
15340.130819 85.051 34.1596
15451.291730 84.867 27.6405
15563.258160 84.633 21.3050
15676.035944 84.345 15.2084
15789.630962 84.001 9.4266
15904.049137 83.600 4.0619
16019.296433 83.143 -0.7473
16135.378859 82.639 -4.8138
16252.302465 82.100 -7.8856
16370.073348 81.552 -9.6299
16488.697648 81.031 -9.6321
16608.181548 80.591 -7.4572
16728.531278 80.293 -2.8702
16849.753112 80.199 3.7383
16971.853368 80.346 11.0704
17094.838414 80.733 17.4292
17218.714660 81.324 21.6882
17343.488565 82.061 23.5961
17469.166632 82.888 23.4058
17595.755415 83.755 21.4883
17723.261512 84.628 18.1616
17851.691571 85.482 13.6549
17981.052287 86.300 8.1212
18111.350404 87.067 1.6609
18242.592715 87.774 -5.6593
18374.786062 88.414 -13.7886
18507.937336 88.979 -22.6772
18642.053479 89.465 -32.2591
18777.141484 89.869 -42.4310
18913.208391 90.190 -53.0295
19050.261296 90.432 -63.8126
19188.307342 90.601 -74.4551
19327.353727 90.706 -84.5665
19467.407699 90.760 -93.7292
19608.476560 90.777 -101.5497
19750.567664 90.772 -107.6981
19893.688419 90.759 -111.9286
20037.846286 90.749 -114.0824
