* Measurement data measured by REW V5.31.3
* Source: EXCL: Headset (USB-C to 3.5mm Headphone Jack Adapter), MICROPHONE (Master Volume), 0, volume: 0.260
* Format: 256k Log Swept Sine, 1 sweep at -12.0 dBFS with no timing reference
* Dated: Feb 9, 2025 10:00:21 PM
* REW Settings:
*  C-weighting compensation: Off
*  Target level: 75.0 dB
* Note: ; 
* Measurement: AKG K701 L9
* Smoothing: 1/6 octave
* Frequency Step: 96 ppo
* Start Frequency: 20.0 Hz
*
* Freq(Hz) SPL(dB) Phase(degrees)
20.141602 83.667 -47.4794
20.287556 83.690 -47.6592
20.434568 83.718 -47.9053
20.582645 83.748 -48.2172
20.731796 83.777 -48.5936
20.882027 83.799 -49.0320
21.033346 83.814 -49.5284
21.185763 83.818 -50.0773
21.339284 83.811 -50.6719
21.493917 83.792 -51.3045
21.649671 83.763 -51.9668
21.806553 83.725 -52.6501
21.964572 83.679 -53.3459
22.123737 83.630 -54.0464
22.284054 83.578 -54.7443
22.445534 83.528 -55.4333
22.608183 83.481 -56.1081
22.772012 83.441 -56.7648
22.937027 83.409 -57.4005
23.103238 83.387 -58.0136
23.270654 83.377 -58.6037
23.439282 83.379 -59.1716
23.609133 83.393 -59.7193
23.780215 83.420 -60.2498
23.952536 83.460 -60.7669
24.126106 83.510 -61.2751
24.300934 83.572 -61.7790
24.477028 83.642 -62.2832
24.654399 83.718 -62.7916
24.833055 83.800 -63.3073
25.013005 83.884 -63.8323
25.194260 83.968 -64.3673
25.376828 84.050 -64.9115
25.560719 84.129 -65.4634
25.745942 84.202 -66.0204
25.932508 84.269 -66.5797
26.120426 84.330 -67.1388
26.309705 84.382 -67.6957
26.500356 84.427 -68.2499
26.692388 84.465 -68.8018
26.885812 84.496 -69.3538
27.080638 84.519 -69.9093
27.276876 84.537 -70.4729
27.474535 84.550 -71.0496
27.673627 84.560 -71.6444
27.874161 84.568 -72.2616
28.076149 84.577 -72.9043
28.279600 84.591 -73.5737
28.484526 84.613 -74.2691
28.690937 84.646 -74.9875
28.898843 84.696 -75.7239
29.108256 84.765 -76.4716
29.319186 84.855 -77.2225
29.531645 84.969 -77.9681
29.745644 85.105 -78.7001
29.961193 85.260 -79.4107
30.178304 85.432 -80.0942
30.396989 85.614 -80.7465
30.617258 85.799 -81.3654
30.839123 85.982 -81.9511
31.062596 86.156 -82.5053
31.287688 86.314 -83.0310
31.514412 86.452 -83.5326
31.742778 86.565 -84.0152
31.972800 86.651 -84.4845
32.204488 86.710 -84.9472
32.437855 86.740 -85.4101
32.672913 86.743 -85.8807
32.909674 86.722 -86.3659
33.148151 86.678 -86.8718
33.388356 86.615 -87.4025
33.630302 86.534 -87.9592
33.874001 86.438 -88.5397
34.119466 86.329 -89.1384
34.366710 86.206 -89.7463
34.615745 86.072 -90.3529
34.866585 85.926 -90.9469
35.119243 85.772 -91.5186
35.373731 85.610 -92.0612
35.630064 85.444 -92.5723
35.888254 85.279 -93.0542
36.148315 85.119 -93.5140
36.410261 84.970 -93.9622
36.674104 84.838 -94.4110
36.939860 84.728 -94.8718
37.207542 84.646 -95.3534
37.477163 84.593 -95.8595
37.748738 84.573 -96.3885
38.022281 84.585 -96.9335
38.297806 84.627 -97.4839
38.575327 84.698 -98.0269
38.854860 84.796 -98.5505
39.136419 84.916 -99.0452
39.420017 85.058 -99.5065
39.705671 85.219 -99.9356
39.993395 85.399 -100.3400
40.283203 85.595 -100.7324
40.575112 85.807 -101.1289
40.869136 86.031 -101.5462
41.165290 86.267 -101.9983
41.463591 86.512 -102.4939
41.764053 86.761 -103.0348
42.066693 87.013 -103.6157
42.371525 87.265 -104.2260
42.678567 87.514 -104.8519
42.987834 87.758 -105.4800
43.299341 87.996 -106.0988
43.613106 88.227 -106.7010
43.929145 88.447 -107.2829
44.247473 88.656 -107.8438
44.568109 88.851 -108.3847
44.891068 89.032 -108.9066
45.216367 89.196 -109.4105
45.544023 89.343 -109.8969
45.874054 89.473 -110.3662
46.206476 89.586 -110.8194
46.541307 89.682 -111.2582
46.878565 89.763 -111.6852
47.218266 89.828 -112.1032
47.560429 89.878 -112.5152
47.905072 89.914 -112.9234
48.252212 89.936 -113.3295
48.601867 89.945 -113.7342
48.954056 89.942 -114.1376
49.308798 89.928 -114.5394
49.666109 89.905 -114.9391
50.026010 89.875 -115.3364
50.388520 89.840 -115.7311
50.753656 89.801 -116.1231
51.121437 89.761 -116.5125
51.491884 89.721 -116.8992
51.865016 89.683 -117.2830
52.240851 89.647 -117.6632
52.619410 89.615 -118.0393
53.000712 89.586 -118.4109
53.384777 89.560 -118.7778
53.771625 89.536 -119.1405
54.161276 89.516 -119.4997
54.553751 89.496 -119.8568
54.949070 89.477 -120.2134
55.347254 89.458 -120.5715
55.748323 89.437 -120.9332
56.152298 89.415 -121.3003
56.559201 89.391 -121.6742
56.969052 89.364 -122.0556
57.381873 89.336 -122.4436
57.797686 89.304 -122.8354
58.216512 89.272 -123.2262
58.638373 89.238 -123.6097
59.063291 89.203 -123.9787
59.491288 89.169 -124.3268
59.922386 89.135 -124.6501
60.356608 89.102 -124.9475
60.793977 89.069 -125.2215
61.234515 89.038 -125.4763
61.678246 89.007 -125.7176
62.125192 88.977 -125.9505
62.575377 88.947 -126.1797
63.028824 88.919 -126.4086
63.485557 88.892 -126.6400
63.945599 88.867 -126.8755
64.408975 88.846 -127.1161
64.875709 88.827 -127.3620
65.345825 88.811 -127.6131
65.819348 88.799 -127.8696
66.296302 88.791 -128.1319
66.776713 88.786 -128.4005
67.260604 88.784 -128.6763
67.748002 88.786 -128.9597
68.238932 88.791 -129.2509
68.733420 88.800 -129.5496
69.231490 88.811 -129.8553
69.733170 88.826 -130.1674
70.238485 88.844 -130.4853
70.747463 88.865 -130.8083
71.260128 88.888 -131.1362
71.776508 88.912 -131.4684
72.296630 88.938 -131.8039
72.820521 88.965 -132.1419
73.348209 88.993 -132.4812
73.879720 89.020 -132.8209
74.415083 89.048 -133.1603
74.954326 89.075 -133.4992
75.497475 89.101 -133.8373
76.044561 89.126 -134.1746
76.595612 89.150 -134.5109
77.150655 89.171 -134.8461
77.709720 89.190 -135.1802
78.272837 89.207 -135.5126
78.840034 89.220 -135.8431
79.411342 89.229 -136.1712
79.986789 89.235 -136.4965
80.566406 89.237 -136.8187
81.150224 89.235 -137.1375
81.738272 89.230 -137.4531
82.330581 89.223 -137.7655
82.927182 89.215 -138.0753
83.528107 89.207 -138.3828
84.133386 89.200 -138.6886
84.743051 89.198 -138.9931
85.357134 89.202 -139.2968
85.975667 89.215 -139.6001
86.598682 89.242 -139.9032
87.226212 89.285 -140.2062
87.858289 89.347 -140.5089
88.494946 89.432 -140.8106
89.136217 89.540 -141.1109
89.782135 89.673 -141.4092
90.432733 89.828 -141.7052
91.088046 90.005 -141.9985
91.748108 90.199 -142.2888
92.412952 90.405 -142.5761
93.082615 90.619 -142.8602
93.757130 90.834 -143.1412
94.436533 91.046 -143.4193
95.120859 91.249 -143.6947
95.810144 91.440 -143.9681
96.504423 91.615 -144.2406
97.203734 91.773 -144.5134
97.908112 91.913 -144.7879
98.617595 92.035 -145.0650
99.332219 92.140 -145.3454
100.052021 92.230 -145.6289
100.777039 92.307 -145.9150
101.507311 92.374 -146.2028
102.242875 92.433 -146.4912
102.983769 92.485 -146.7788
103.730032 92.531 -147.0646
104.481702 92.573 -147.3474
105.238820 92.610 -147.6264
106.001424 92.641 -147.9009
106.769554 92.665 -148.1708
107.543250 92.680 -148.4359
108.322553 92.685 -148.6963
109.107503 92.679 -148.9523
109.898141 92.660 -149.2040
110.694508 92.628 -149.4520
111.496646 92.582 -149.6969
112.304596 92.524 -149.9397
113.118402 92.455 -150.1814
113.938104 92.376 -150.4233
114.763747 92.289 -150.6663
115.595372 92.197 -150.9108
116.433024 92.101 -151.1567
117.276746 92.004 -151.4034
118.126581 91.907 -151.6497
118.982575 91.813 -151.8941
119.844772 91.720 -152.1348
120.713217 91.631 -152.3701
121.587954 91.543 -152.5993
122.469031 91.458 -152.8226
123.356492 91.373 -153.0408
124.250384 91.288 -153.2556
125.150753 91.200 -153.4687
126.057647 91.110 -153.6817
126.971113 91.015 -153.8962
127.891198 90.914 -154.1132
128.817950 90.807 -154.3331
129.751418 90.694 -154.5558
130.691651 90.575 -154.7805
131.638696 90.451 -155.0061
132.592604 90.323 -155.2313
133.553425 90.193 -155.4547
134.521208 90.064 -155.6751
135.496004 89.939 -155.8918
136.477864 89.823 -156.1044
137.466839 89.718 -156.3130
138.462981 89.627 -156.5174
139.466340 89.553 -156.7178
140.476971 89.498 -156.9144
141.494925 89.462 -157.1077
142.520256 89.444 -157.2982
143.553016 89.443 -157.4866
144.593260 89.455 -157.6738
145.641043 89.477 -157.8603
146.696418 89.504 -158.0469
147.759441 89.533 -158.2338
148.830166 89.561 -158.4216
149.908651 89.584 -158.6103
150.994951 89.602 -158.8000
152.089123 89.611 -158.9906
153.191223 89.614 -159.1823
154.301310 89.610 -159.3750
155.419441 89.601 -159.5688
156.545674 89.588 -159.7640
157.680069 89.574 -159.9608
158.822683 89.559 -160.1594
159.973578 89.546 -160.3600
161.132813 89.535 -160.5626
162.300447 89.526 -160.7672
163.476543 89.521 -160.9737
164.661162 89.518 -161.1820
165.854364 89.519 -161.3919
167.056213 89.523 -161.6033
168.266772 89.529 -161.8159
169.486102 89.539 -162.0293
170.714268 89.552 -162.2426
171.951334 89.569 -162.4550
173.197364 89.589 -162.6649
174.452424 89.612 -162.8710
175.716578 89.638 -163.0719
176.989893 89.668 -163.2660
178.272434 89.699 -163.4525
179.564270 89.731 -163.6304
180.865467 89.764 -163.7993
182.176092 89.796 -163.9592
183.496216 89.827 -164.1104
184.825905 89.856 -164.2536
186.165229 89.883 -164.3897
187.514259 89.908 -164.5199
188.873065 89.931 -164.6453
190.241717 89.953 -164.7674
191.620287 89.975 -164.8874
193.008847 89.996 -165.0066
194.407468 90.018 -165.1264
195.816225 90.040 -165.2479
197.235190 90.061 -165.3718
198.664438 90.083 -165.4986
200.104042 90.103 -165.6289
201.554078 90.122 -165.7629
203.014622 90.138 -165.9006
204.485750 90.152 -166.0416
205.967538 90.163 -166.1851
207.460064 90.169 -166.3299
208.963405 90.173 -166.4751
210.477640 90.172 -166.6198
212.002848 90.168 -166.7634
213.539108 90.161 -166.9054
215.086500 90.151 -167.0456
216.645105 90.139 -167.1837
218.215005 90.124 -167.3192
219.796281 90.107 -167.4523
221.389015 90.089 -167.5826
222.993292 90.067 -167.7101
224.609193 90.043 -167.8348
226.236804 90.015 -167.9565
227.876209 89.982 -168.0755
229.527494 89.946 -168.1921
231.190745 89.904 -168.3068
232.866048 89.857 -168.4203
234.553491 89.806 -168.5334
236.253163 89.750 -168.6469
237.965150 89.691 -168.7614
239.689544 89.629 -168.8773
241.426433 89.566 -168.9947
243.175909 89.501 -169.1134
244.938062 89.437 -169.2334
246.712984 89.374 -169.3544
248.500768 89.312 -169.4766
250.301507 89.254 -169.5998
252.115295 89.198 -169.7240
253.942226 89.147 -169.8488
255.782396 89.099 -169.9743
257.635901 89.057 -170.1003
259.502837 89.020 -170.2266
261.383301 88.989 -170.3531
263.277392 88.964 -170.4792
265.185209 88.945 -170.6045
267.106850 88.932 -170.7283
269.042417 88.925 -170.8504
270.992009 88.924 -170.9708
272.955729 88.927 -171.0899
274.933678 88.935 -171.2079
276.925961 88.947 -171.3248
278.932681 88.961 -171.4403
280.953942 88.977 -171.5540
282.989850 88.996 -171.6652
285.040511 89.016 -171.7731
287.106032 89.039 -171.8773
289.186521 89.066 -171.9771
291.282086 89.096 -172.0722
293.392836 89.131 -172.1626
295.518881 89.173 -172.2487
297.660333 89.220 -172.3307
299.817302 89.273 -172.4095
301.989902 89.331 -172.4855
304.178245 89.393 -172.5598
306.382446 89.457 -172.6332
308.602620 89.522 -172.7065
310.838882 89.584 -172.7805
313.091348 89.644 -172.8556
315.360137 89.698 -172.9321
317.645367 89.746 -173.0098
319.947156 89.786 -173.0881
322.265625 89.818 -173.1661
324.600895 89.840 -173.2426
326.953086 89.852 -173.3162
329.322323 89.854 -173.3853
331.708729 89.845 -173.4489
334.112427 89.825 -173.5060
336.533543 89.796 -173.5565
338.972204 89.756 -173.6007
341.428536 89.708 -173.6395
343.902668 89.652 -173.6739
346.394729 89.589 -173.7054
348.904848 89.521 -173.7354
351.433156 89.450 -173.7649
353.979786 89.378 -173.7950
356.544869 89.308 -173.8263
359.128540 89.242 -173.8594
361.730934 89.184 -173.8945
364.352185 89.135 -173.9317
366.992431 89.098 -173.9711
369.651810 89.077 -174.0127
372.330459 89.072 -174.0565
375.028519 89.085 -174.1023
377.746130 89.115 -174.1498
380.483434 89.163 -174.1990
383.240574 89.226 -174.2494
386.017693 89.302 -174.3008
388.814937 89.389 -174.3530
391.632450 89.485 -174.4058
394.470380 89.585 -174.4593
397.328875 89.689 -174.5132
400.208084 89.793 -174.5678
403.108157 89.895 -174.6228
406.029245 89.995 -174.6783
408.971500 90.092 -174.7340
411.935076 90.186 -174.7900
414.920127 90.276 -174.8459
417.926810 90.363 -174.9019
420.955280 90.448 -174.9579
424.005695 90.532 -175.0141
427.078215 90.615 -175.0704
430.173000 90.697 -175.1268
433.290211 90.779 -175.1830
436.430010 90.862 -175.2387
439.592562 90.943 -175.2935
442.778031 91.023 -175.3472
445.986583 91.100 -175.3995
449.218386 91.172 -175.4505
452.473607 91.238 -175.5007
455.752418 91.297 -175.5504
459.054987 91.347 -175.6002
462.381489 91.386 -175.6507
465.732096 91.416 -175.7022
469.106983 91.434 -175.7550
472.506325 91.442 -175.8093
475.930301 91.439 -175.8653
479.379088 91.427 -175.9231
482.852867 91.406 -175.9827
486.351817 91.378 -176.0440
489.876123 91.344 -176.1068
493.425968 91.303 -176.1710
497.001536 91.258 -176.2364
500.603014 91.208 -176.3028
504.230589 91.154 -176.3699
507.884452 91.096 -176.4374
511.564792 91.032 -176.5045
515.271802 90.964 -176.5696
519.005673 90.892 -176.6306
522.766602 90.814 -176.6842
526.554785 90.734 -176.7265
530.370418 90.651 -176.7522
534.213700 90.569 -176.7558
538.084833 90.489 -176.7311
541.984018 90.413 -176.6725
545.911457 90.344 -176.5752
549.867357 90.285 -176.4363
553.851922 90.236 -176.2556
557.865362 90.199 -176.0360
561.907884 90.174 -175.7831
565.979700 90.160 -175.5048
570.081022 90.157 -175.2105
574.212064 90.161 -174.9098
578.373042 90.171 -174.6119
582.564171 90.183 -174.3244
586.785671 90.196 -174.0531
591.037762 90.208 -173.8018
595.320665 90.216 -173.5727
599.634604 90.220 -173.3662
603.979804 90.218 -173.1819
608.356491 90.210 -173.0185
612.764893 90.196 -172.8739
617.205240 90.176 -172.7461
621.677763 90.152 -172.6327
626.182696 90.124 -172.5315
630.720274 90.093 -172.4406
635.290733 90.062 -172.3581
639.894312 90.033 -172.2822
644.531250 90.006 -172.2114
649.201789 89.985 -172.1443
653.906173 89.969 -172.0795
658.644647 89.960 -172.0164
663.417457 89.957 -171.9541
668.224854 89.960 -171.8923
673.067086 89.969 -171.8307
677.944408 89.981 -171.7691
682.857073 89.995 -171.7074
687.805336 90.010 -171.6454
692.789457 90.023 -171.5832
697.809695 90.035 -171.5207
702.866312 90.042 -171.4577
707.959571 90.046 -171.3943
713.089738 90.045 -171.3302
718.257080 90.038 -171.2653
723.461867 90.027 -171.1993
728.704370 90.012 -171.1322
733.984862 89.992 -171.0639
739.303619 89.969 -170.9944
744.660918 89.944 -170.9236
750.057038 89.916 -170.8516
755.492260 89.887 -170.7784
760.966869 89.857 -170.7041
766.481148 89.825 -170.6285
772.035387 89.792 -170.5515
777.629873 89.757 -170.4730
783.264900 89.719 -170.3927
788.940760 89.678 -170.3102
794.657750 89.632 -170.2252
800.416168 89.581 -170.1373
806.216313 89.525 -170.0462
812.058489 89.462 -169.9523
817.943000 89.393 -169.8561
823.870152 89.317 -169.7580
829.840255 89.236 -169.6588
835.853619 89.148 -169.5586
841.910559 89.056 -169.4573
848.011390 88.960 -169.3541
854.156430 88.861 -169.2480
860.346000 88.761 -169.1379
866.580422 88.659 -169.0227
872.860020 88.559 -168.9014
879.185124 88.460 -168.7737
885.556062 88.365 -168.6398
891.973166 88.275 -168.5004
898.436771 88.191 -168.3564
904.947215 88.114 -168.2094
911.504835 88.045 -168.0605
918.109975 87.986 -167.9107
924.762978 87.936 -167.7603
931.464192 87.895 -167.6090
938.213966 87.865 -167.4561
945.012651 87.844 -167.3005
951.860602 87.832 -167.1408
958.758176 87.828 -166.9754
965.705733 87.832 -166.8027
972.703635 87.844 -166.6213
979.752246 87.862 -166.4305
986.851935 87.886 -166.2298
994.003071 87.915 -166.0194
1001.206027 87.950 -165.8000
1008.461179 87.990 -165.5724
1015.768904 88.036 -165.3371
1023.129584 88.088 -165.0946
1030.543603 88.147 -164.8449
1038.011347 88.213 -164.5878
1045.533205 88.287 -164.3230
1053.109569 88.370 -164.0504
1060.740836 88.462 -163.7707
1068.427401 88.563 -163.4852
1076.169666 88.672 -163.1966
1083.968035 88.789 -162.9080
1091.822915 88.912 -162.6235
1099.734713 89.038 -162.3475
1107.703844 89.166 -162.0847
1115.730723 89.293 -161.8386
1123.815768 89.416 -161.6117
1131.959400 89.533 -161.4041
1140.162045 89.642 -161.2137
1148.424129 89.742 -161.0352
1156.746083 89.833 -160.8614
1165.128342 89.913 -160.6833
1173.571343 89.986 -160.4913
1182.075524 90.053 -160.2768
1190.641331 90.115 -160.0329
1199.269209 90.176 -159.7556
1207.959608 90.237 -159.4436
1216.712981 90.301 -159.0990
1225.529785 90.368 -158.7260
1234.410479 90.440 -158.3312
1243.355526 90.516 -157.9218
1252.365393 90.596 -157.5057
1261.440549 90.678 -157.0898
1270.581467 90.762 -156.6795
1279.788624 90.845 -156.2782
1289.062500 90.927 -155.8865
1298.403578 91.007 -155.5031
1307.812346 91.084 -155.1249
1317.289293 91.158 -154.7488
1326.834914 91.229 -154.3717
1336.449707 91.299 -153.9915
1346.134173 91.367 -153.6068
1355.888816 91.434 -153.2169
1365.714145 91.501 -152.8212
1375.610673 91.566 -152.4192
1385.578915 91.632 -152.0105
1395.619391 91.698 -151.5956
1405.732624 91.765 -151.1758
1415.919142 91.833 -150.7539
1426.179476 91.902 -150.3334
1436.514160 91.974 -149.9178
1446.923734 92.049 -149.5105
1457.408740 92.127 -149.1137
1467.969724 92.208 -148.7287
1478.607238 92.293 -148.3560
1489.321836 92.382 -147.9949
1500.114076 92.475 -147.6439
1510.984521 92.572 -147.3011
1521.933737 92.674 -146.9640
1532.962297 92.779 -146.6300
1544.070773 92.888 -146.2966
1555.259747 93.001 -145.9619
1566.529800 93.117 -145.6253
1577.881521 93.237 -145.2868
1589.315501 93.359 -144.9479
1600.832336 93.484 -144.6104
1612.432627 93.612 -144.2766
1624.116978 93.743 -143.9489
1635.886000 93.875 -143.6292
1647.740304 94.010 -143.3193
1659.680509 94.147 -143.0209
1671.707238 94.286 -142.7356
1683.821118 94.428 -142.4650
1696.022780 94.572 -142.2109
1708.312860 94.718 -141.9741
1720.692000 94.867 -141.7551
1733.160843 95.018 -141.5539
1745.720041 95.171 -141.3702
1758.370248 95.326 -141.2037
1771.112124 95.481 -141.0538
1783.946332 95.637 -140.9199
1796.873543 95.793 -140.8005
1809.894429 95.948 -140.6938
1823.009670 96.102 -140.5983
1836.219950 96.257 -140.5128
1849.525956 96.411 -140.4371
1862.928384 96.565 -140.3723
1876.427931 96.721 -140.3202
1890.025301 96.877 -140.2836
1903.721204 97.035 -140.2657
1917.516352 97.195 -140.2701
1931.411466 97.355 -140.3005
1945.407270 97.517 -140.3607
1959.504493 97.677 -140.4547
1973.703870 97.836 -140.5859
1988.006142 97.991 -140.7571
2002.412054 98.142 -140.9696
2016.922357 98.286 -141.2234
2031.537808 98.422 -141.5176
2046.259169 98.550 -141.8506
2061.087206 98.669 -142.2208
2076.022694 98.778 -142.6266
2091.066410 98.878 -143.0672
2106.219139 98.970 -143.5422
2121.481671 99.055 -144.0520
2136.854802 99.133 -144.5974
2152.339333 99.205 -145.1799
2167.936071 99.273 -145.8013
2183.645829 99.337 -146.4632
2199.469427 99.397 -147.1661
2215.407689 99.454 -147.9086
2231.461446 99.508 -148.6879
2247.631536 99.558 -149.4989
2263.918800 99.604 -150.3358
2280.324089 99.647 -151.1928
2296.848258 99.686 -152.0641
2313.492167 99.721 -152.9450
2330.256685 99.753 -153.8318
2347.142685 99.782 -154.7220
2364.151049 99.808 -155.6145
2381.282662 99.832 -156.5092
2398.538418 99.852 -157.4068
2415.919216 99.870 -158.3081
2433.425962 99.885 -159.2138
2451.059570 99.897 -160.1243
2468.820958 99.906 -161.0393
2486.711052 99.912 -161.9571
2504.730786 99.914 -162.8746
2522.881098 99.914 -163.7881
2541.162934 99.912 -164.6934
2559.577248 99.909 -165.5869
2578.125000 99.906 -166.4660
2596.807157 99.905 -167.3294
2615.624692 99.907 -168.1771
2634.578586 99.913 -169.0105
2653.669829 99.925 -169.8314
2672.899414 99.944 -170.6417
2692.268345 99.968 -171.4429
2711.777632 99.999 -172.2355
2731.428290 100.035 -173.0194
2751.221345 100.076 -173.7936
2771.157829 100.119 -174.5561
2791.238781 100.165 -175.3040
2811.465248 100.210 -176.0336
2831.838284 100.253 -176.7408
2852.358952 100.292 -177.4218
2873.028321 100.326 -178.0730
2893.847468 100.354 -178.6917
2914.817480 100.375 -179.2758
2935.939449 100.388 -179.8249
2957.214476 100.391 179.6602
2978.643672 100.385 179.1779
3000.228152 100.370 178.7265
3021.969041 100.344 178.3050
3043.867475 100.308 177.9128
3065.924593 100.262 177.5505
3088.141547 100.206 177.2186
3110.519493 100.142 176.9178
3133.059600 100.071 176.6480
3155.763041 99.992 176.4088
3178.631001 99.909 176.1995
3201.664672 99.822 176.0192
3224.865254 99.731 175.8670
3248.233957 99.638 175.7423
3271.771999 99.545 175.6446
3295.480608 99.450 175.5734
3319.361019 99.357 175.5276
3343.414477 99.265 175.5050
3367.642236 99.176 175.5025
3392.045560 99.089 175.5158
3416.625721 99.006 175.5400
3441.383999 98.927 175.5705
3466.321686 98.851 175.6033
3491.440082 98.779 175.6364
3516.740496 98.711 175.6694
3542.224247 98.646 175.7044
3567.892664 98.584 175.7449
3593.747085 98.527 175.7964
3619.788858 98.473 175.8656
3646.019340 98.424 175.9600
3672.439900 98.382 176.0871
3699.051913 98.347 176.2520
3725.856768 98.322 176.4559
3752.855862 98.308 176.6939
3780.050603 98.308 176.9548
3807.442408 98.322 177.2213
3835.032705 98.348 177.4728
3862.822933 98.386 177.6891
3890.814540 98.432 177.8546
3919.008986 98.481 177.9622
3947.407741 98.531 178.0144
3976.012284 98.577 178.0222
4004.824108 98.617 178.0011
4033.844715 98.651 177.9687
4063.075616 98.678 177.9411
4092.518337 98.699 177.9319
4122.174412 98.714 177.9511
4152.045387 98.724 178.0056
4182.132820 98.732 178.0991
4212.438278 98.736 178.2333
4242.963342 98.740 178.4084
4273.709604 98.742 178.6238
4304.678665 98.744 178.8782
4335.872141 98.746 179.1701
4367.291658 98.749 179.4981
4398.938854 98.751 179.8608
4430.815378 98.755 -179.7432
4462.922893 98.759 -179.3155
4495.263072 98.764 -178.8581
4527.837601 98.770 -178.3743
4560.648179 98.778 -177.8689
4593.696515 98.788 -177.3482
4626.984334 98.801 -176.8206
4660.513370 98.817 -176.2961
4694.285371 98.837 -175.7857
4728.302098 98.861 -175.3015
4762.565324 98.890 -174.8553
4797.076835 98.924 -174.4585
4831.838432 98.963 -174.1209
4866.851925 99.005 -173.8498
4902.119140 99.050 -173.6497
4937.641916 99.097 -173.5209
4973.422105 99.144 -173.4603
5009.461572 99.191 -173.4609
5045.762195 99.236 -173.5125
5082.325868 99.280 -173.6030
5119.154496 99.321 -173.7197
5156.250000 99.361 -173.8505
5193.614313 99.401 -173.9856
5231.249383 99.442 -174.1187
5269.157173 99.485 -174.2482
5307.339658 99.533 -174.3782
5345.798829 99.586 -174.5177
5384.536691 99.645 -174.6802
5423.555263 99.710 -174.8816
5462.856580 99.779 -175.1383
5502.442691 99.851 -175.4648
5542.315659 99.923 -175.8721
5582.477563 99.993 -176.3661
5622.930497 100.058 -176.9476
5663.676569 100.114 -177.6115
5704.717904 100.161 -178.3476
5746.056642 100.194 -179.1411
5787.694937 100.215 -179.9730
5829.634960 100.220 179.1783
5871.878898 100.211 178.3368
5914.428953 100.186 177.5282
5957.287343 100.148 176.7786
6000.456303 100.096 176.1145
6043.938083 100.034 175.5614
6087.734950 99.964 175.1430
6131.849187 99.887 174.8806
6176.283094 99.808 174.7912
6221.038987 99.730 174.8870
6266.119200 99.658 175.1728
6311.526083 99.596 175.6453
6357.262002 99.549 176.2911
6403.329344 99.520 177.0865
6449.730508 99.514 177.9971
6496.467914 99.534 178.9799
6543.543998 99.583 179.9855
6590.961215 99.661 -179.0385
6638.722037 99.768 -178.1438
6686.828954 99.903 -177.3783
6735.284473 100.065 -176.7831
6784.091120 100.248 -176.3916
6833.251441 100.451 -176.2285
6882.767998 100.669 -176.3108
6932.643372 100.896 -176.6475
6982.880164 101.128 -177.2415
7033.480992 101.360 -178.0895
7084.448495 101.588 -179.1837
7135.785329 101.807 179.4885
7187.494171 102.012 177.9424
7239.577717 102.201 176.1960
7292.038681 102.372 174.2683
7344.879799 102.520 172.1783
7398.103826 102.647 169.9431
7451.713536 102.750 167.5767
7505.711724 102.829 165.0893
7560.101205 102.883 162.4865
7614.884815 102.911 159.7696
7670.065409 102.912 156.9375
7725.645865 102.883 153.9880
7781.629080 102.819 150.9210
7838.017972 102.717 147.7415
7894.815481 102.570 144.4625
7952.024569 102.372 141.1090
8009.648217 102.117 137.7205
8067.689429 101.797 134.3542
8126.151233 101.408 131.0875
8185.036674 100.946 128.0204
8244.348824 100.409 125.2782
8304.090774 99.798 123.0177
8364.265639 99.116 121.4380
8424.876556 98.370 120.8012
8485.926684 97.572 121.4663
8547.419207 96.738 123.9361
8609.357330 95.890 128.8895
8671.744282 95.062 137.0761
8734.583316 94.293 148.7751
8797.877707 93.632 162.7697
8861.630756 93.125 176.3102
8925.845785 92.809 -172.8473
8990.526143 92.699 -165.1710
9055.675202 92.779 -160.1016
9121.296357 93.014 -156.9323
9187.393031 93.363 -155.1165
9253.968668 93.782 -154.2867
9321.026740 94.237 -154.2067
9388.570742 94.701 -154.7265
9456.604196 95.156 -155.7499
9525.130648 95.585 -157.2135
9594.153671 95.977 -159.0717
9663.676863 96.323 -161.2880
9733.703850 96.614 -163.8271
9804.238280 96.842 -166.6513
9875.283832 97.002 -169.7154
9946.844210 97.086 -172.9653
10018.923143 97.090 -176.3360
10091.524390 97.009 -179.7520
10164.651736 96.843 176.8707
10238.308993 96.591 173.6212
10312.500000 96.258 170.5890
10387.228626 95.849 167.8586
10462.498767 95.371 165.5051
10538.314345 94.835 163.5890
10614.679315 94.252 162.1521
10691.597657 93.636 161.2134
10769.073381 93.001 160.7653
10847.110526 92.362 160.7708
10925.713161 91.734 161.1644
11004.885382 91.131 161.8563
11084.631318 90.565 162.7406
11164.955126 90.046 163.7068
11245.860993 89.577 164.6495
11327.353138 89.162 165.4769
11409.435808 88.800 166.1135
11492.113283 88.487 166.5001
11575.389873 88.221 166.5910
11659.269920 87.996 166.3498
11743.757796 87.810 165.7455
11828.857906 87.659 164.7499
11914.574686 87.539 163.3359
12000.912606 87.447 161.4757
12087.876166 87.379 159.1418
12175.469900 87.328 156.3058
12263.698373 87.288 152.9396
12352.566187 87.249 149.0145
12442.077974 87.204 144.5015
12532.238400 87.143 139.3698
12623.052165 87.056 133.5854
12714.524005 86.935 127.1073
12806.658687 86.773 119.8834
12899.461015 86.565 111.8462
12992.935827 86.310 102.9112
13087.087996 86.008 92.9816
13181.922430 85.661 81.9720
13277.444074 85.276 69.8561
13373.657907 84.859 56.7428
13470.568945 84.420 42.9464
13568.182241 83.967 28.9832
13666.502883 83.509 15.4463
13765.535996 83.054 2.8232
13865.286744 82.608 -8.6163
13965.760328 82.173 -18.8121
14066.961984 81.751 -27.8364
14168.896989 81.338 -35.8174
14271.570658 80.931 -42.8882
14374.988342 80.524 -49.1621
14479.155433 80.109 -54.7213
14584.077362 79.679 -59.6125
14689.759598 79.227 -63.8457
14796.207652 78.749 -67.3934
14903.427072 78.243 -70.1918
15011.423448 77.711 -72.1437
15120.202410 77.162 -73.1266
15229.769630 76.612 -73.0127
15340.130819 76.085 -71.7076
15451.291730 75.610 -69.2164
15563.258160 75.222 -65.7208
15676.035944 74.951 -61.6135
15789.630962 74.814 -57.4260
15904.049137 74.815 -53.6588
16019.296433 74.941 -50.6280
16135.378859 75.170 -48.4241
16252.302465 75.480 -46.9664
16370.073348 75.858 -46.0888
16488.697648 76.296 -45.6071
16608.181548 76.793 -45.3647
16728.531278 77.354 -45.2605
16849.753112 77.978 -45.2674
16971.853368 78.663 -45.4418
17094.838414 79.397 -45.9153
17218.714660 80.166 -46.8648
17343.488565 80.948 -48.4684
17469.166632 81.726 -50.8643
17595.755415 82.481 -54.1302
17723.261512 83.197 -58.2844
17851.691571 83.864 -63.3019
17981.052287 84.473 -69.1337
18111.350404 85.017 -75.7224
18242.592715 85.492 -83.0110
18374.786062 85.893 -90.9462
18507.937336 86.220 -99.4758
18642.053479 86.470 -108.5435
18777.141484 86.647 -118.0774
18913.208391 86.753 -127.9742
19050.261296 86.794 -138.0765
19188.307342 86.779 -148.1511
19327.353727 86.719 -157.8780
19467.407699 86.628 -166.8626
19608.476560 86.524 -174.6794
19750.567664 86.423 179.0730
19893.688419 86.344 174.7213
20037.846286 86.300 172.4894
