* Measurement data measured by REW V5.31.3
* Source: EXCL: Headset (USB-C to 3.5mm Headphone Jack Adapter), MICROPHONE (Master Volume), 0, volume: 0.260
* Format: 256k Log Swept Sine, 1 sweep at -12.0 dBFS with no timing reference
* Dated: Feb 9, 2025 10:06:11 PM
* REW Settings:
*  C-weighting compensation: Off
*  Target level: 75.0 dB
* Note: ; 
* Measurement: AKG K701 R8
* Smoothing: 1/6 octave
* Frequency Step: 96 ppo
* Start Frequency: 20.0 Hz
*
* Freq(Hz) SPL(dB) Phase(degrees)
20.141602 82.304 -45.1680
20.287556 82.295 -45.4288
20.434568 82.283 -45.7712
20.582645 82.267 -46.1761
20.731796 82.246 -46.6229
20.882027 82.220 -47.0922
21.033346 82.190 -47.5670
21.185763 82.156 -48.0339
21.339284 82.120 -48.4840
21.493917 82.083 -48.9128
21.649671 82.046 -49.3197
21.806553 82.011 -49.7072
21.964572 81.979 -50.0800
22.123737 81.949 -50.4439
22.284054 81.923 -50.8050
22.445534 81.899 -51.1687
22.608183 81.879 -51.5395
22.772012 81.861 -51.9204
22.937027 81.844 -52.3132
23.103238 81.829 -52.7185
23.270654 81.816 -53.1360
23.439282 81.805 -53.5647
23.609133 81.797 -54.0031
23.780215 81.793 -54.4497
23.952536 81.795 -54.9027
24.126106 81.804 -55.3608
24.300934 81.822 -55.8225
24.477028 81.850 -56.2868
24.654399 81.888 -56.7532
24.833055 81.938 -57.2218
25.013005 81.998 -57.6936
25.194260 82.069 -58.1707
25.376828 82.149 -58.6564
25.560719 82.236 -59.1552
25.745942 82.328 -59.6725
25.932508 82.423 -60.2140
26.120426 82.518 -60.7853
26.309705 82.610 -61.3911
26.500356 82.696 -62.0338
26.692388 82.774 -62.7134
26.885812 82.842 -63.4269
27.080638 82.897 -64.1677
27.276876 82.941 -64.9262
27.474535 82.973 -65.6904
27.673627 82.995 -66.4470
27.874161 83.011 -67.1826
28.076149 83.025 -67.8855
28.279600 83.041 -68.5474
28.484526 83.066 -69.1643
28.690937 83.106 -69.7372
28.898843 83.164 -70.2725
29.108256 83.244 -70.7805
29.319186 83.347 -71.2740
29.531645 83.471 -71.7663
29.745644 83.614 -72.2688
29.961193 83.770 -72.7898
30.178304 83.935 -73.3337
30.396989 84.101 -73.9011
30.617258 84.264 -74.4895
30.839123 84.419 -75.0951
31.062596 84.561 -75.7139
31.287688 84.689 -76.3435
31.514412 84.798 -76.9832
31.742778 84.889 -77.6344
31.972800 84.958 -78.2991
32.204488 85.006 -78.9790
32.437855 85.031 -79.6735
32.672913 85.032 -80.3785
32.909674 85.009 -81.0862
33.148151 84.963 -81.7855
33.388356 84.893 -82.4636
33.630302 84.803 -83.1088
33.874001 84.695 -83.7120
34.119466 84.572 -84.2697
34.366710 84.439 -84.7843
34.615745 84.300 -85.2643
34.866585 84.158 -85.7226
35.119243 84.019 -86.1742
35.373731 83.884 -86.6337
35.630064 83.758 -87.1123
35.888254 83.642 -87.6165
36.148315 83.539 -88.1475
36.410261 83.451 -88.7021
36.674104 83.381 -89.2736
36.939860 83.331 -89.8541
37.207542 83.304 -90.4360
37.477163 83.300 -91.0132
37.748738 83.320 -91.5817
38.022281 83.365 -92.1392
38.297806 83.433 -92.6852
38.575327 83.523 -93.2197
38.854860 83.634 -93.7436
39.136419 83.763 -94.2578
39.420017 83.909 -94.7638
39.705671 84.071 -95.2631
39.993395 84.248 -95.7572
40.283203 84.438 -96.2468
40.575112 84.641 -96.7316
40.869136 84.856 -97.2096
41.165290 85.081 -97.6779
41.463591 85.315 -98.1327
41.764053 85.557 -98.5706
42.066693 85.805 -98.9899
42.371525 86.056 -99.3906
42.678567 86.308 -99.7750
42.987834 86.558 -100.1466
43.299341 86.803 -100.5099
43.613106 87.040 -100.8686
43.929145 87.266 -101.2255
44.247473 87.479 -101.5823
44.568109 87.678 -101.9390
44.891068 87.860 -102.2952
45.216367 88.026 -102.6494
45.544023 88.175 -103.0001
45.874054 88.307 -103.3462
46.206476 88.423 -103.6871
46.541307 88.523 -104.0230
46.878565 88.607 -104.3557
47.218266 88.677 -104.6881
47.560429 88.731 -105.0243
47.905072 88.771 -105.3693
48.252212 88.798 -105.7283
48.601867 88.812 -106.1061
48.954056 88.814 -106.5062
49.308798 88.806 -106.9299
49.666109 88.790 -107.3759
50.026010 88.767 -107.8399
50.388520 88.739 -108.3155
50.753656 88.709 -108.7946
51.121437 88.679 -109.2699
51.491884 88.650 -109.7358
51.865016 88.625 -110.1894
52.240851 88.603 -110.6304
52.619410 88.586 -111.0607
53.000712 88.572 -111.4829
53.384777 88.561 -111.8997
53.771625 88.552 -112.3127
54.161276 88.542 -112.7223
54.553751 88.532 -113.1275
54.949070 88.520 -113.5269
55.347254 88.505 -113.9185
55.748323 88.486 -114.3008
56.152298 88.464 -114.6731
56.559201 88.438 -115.0360
56.969052 88.408 -115.3909
57.381873 88.375 -115.7398
57.797686 88.339 -116.0841
58.216512 88.300 -116.4242
58.638373 88.260 -116.7588
59.063291 88.221 -117.0852
59.491288 88.183 -117.4002
59.922386 88.148 -117.7013
60.356608 88.118 -117.9869
60.793977 88.092 -118.2566
61.234515 88.070 -118.5110
61.678246 88.052 -118.7517
62.125192 88.038 -118.9803
62.575377 88.025 -119.1989
63.028824 88.014 -119.4098
63.485557 88.004 -119.6156
63.945599 87.996 -119.8190
64.408975 87.989 -120.0228
64.875709 87.985 -120.2302
65.345825 87.984 -120.4443
65.819348 87.985 -120.6683
66.296302 87.991 -120.9048
66.776713 88.000 -121.1553
67.260604 88.013 -121.4201
67.748002 88.029 -121.6979
68.238932 88.050 -121.9866
68.733420 88.073 -122.2833
69.231490 88.099 -122.5856
69.733170 88.128 -122.8916
70.238485 88.158 -123.2007
70.747463 88.190 -123.5132
71.260128 88.224 -123.8302
71.776508 88.258 -124.1530
72.296630 88.294 -124.4828
72.820521 88.330 -124.8207
73.348209 88.368 -125.1670
73.879720 88.406 -125.5216
74.415083 88.444 -125.8836
74.954326 88.481 -126.2512
75.497475 88.518 -126.6220
76.044561 88.553 -126.9935
76.595612 88.586 -127.3635
77.150655 88.617 -127.7302
77.709720 88.646 -128.0928
78.272837 88.672 -128.4511
78.840034 88.695 -128.8054
79.411342 88.716 -129.1562
79.986789 88.733 -129.5037
80.566406 88.746 -129.8479
81.150224 88.756 -130.1886
81.738272 88.762 -130.5260
82.330581 88.765 -130.8602
82.927182 88.767 -131.1920
83.528107 88.769 -131.5221
84.133386 88.772 -131.8516
84.743051 88.779 -132.1812
85.357134 88.793 -132.5113
85.975667 88.818 -132.8423
86.598682 88.856 -133.1738
87.226212 88.911 -133.5055
87.858289 88.985 -133.8364
88.494946 89.082 -134.1661
89.136217 89.203 -134.4937
89.782135 89.347 -134.8192
90.432733 89.515 -135.1424
91.088046 89.703 -135.4637
91.748108 89.908 -135.7839
92.412952 90.125 -136.1035
93.082615 90.349 -136.4230
93.757130 90.574 -136.7428
94.436533 90.795 -137.0627
95.120859 91.008 -137.3826
95.810144 91.208 -137.7024
96.504423 91.392 -138.0225
97.203734 91.559 -138.3434
97.908112 91.708 -138.6661
98.617595 91.840 -138.9913
99.332219 91.955 -139.3201
100.052021 92.057 -139.6533
100.777039 92.146 -139.9915
101.507311 92.225 -140.3349
102.242875 92.296 -140.6833
102.983769 92.361 -141.0363
103.730032 92.420 -141.3931
104.481702 92.474 -141.7528
105.238820 92.522 -142.1145
106.001424 92.565 -142.4777
106.769554 92.601 -142.8421
107.543250 92.628 -143.2080
108.322553 92.644 -143.5758
109.107503 92.648 -143.9456
109.898141 92.638 -144.3172
110.694508 92.614 -144.6901
111.496646 92.575 -145.0631
112.304596 92.521 -145.4347
113.118402 92.455 -145.8033
113.938104 92.376 -146.1672
114.763747 92.289 -146.5253
115.595372 92.194 -146.8765
116.433024 92.095 -147.2201
117.276746 91.993 -147.5559
118.126581 91.891 -147.8837
118.982575 91.791 -148.2034
119.844772 91.694 -148.5155
120.713217 91.599 -148.8205
121.587954 91.508 -149.1190
122.469031 91.419 -149.4115
123.356492 91.330 -149.6983
124.250384 91.242 -149.9798
125.150753 91.152 -150.2561
126.057647 91.058 -150.5277
126.971113 90.960 -150.7955
127.891198 90.856 -151.0603
128.817950 90.745 -151.3231
129.751418 90.629 -151.5845
130.691651 90.507 -151.8446
131.638696 90.380 -152.1029
132.592604 90.249 -152.3589
133.553425 90.118 -152.6118
134.521208 89.989 -152.8611
135.496004 89.864 -153.1063
136.477864 89.748 -153.3474
137.466839 89.644 -153.5845
138.462981 89.554 -153.8182
139.466340 89.482 -154.0494
140.476971 89.429 -154.2790
141.494925 89.396 -154.5081
142.520256 89.380 -154.7375
143.553016 89.381 -154.9676
144.593260 89.395 -155.1988
145.641043 89.418 -155.4309
146.696418 89.447 -155.6635
147.759441 89.477 -155.8961
148.830166 89.505 -156.1282
149.908651 89.528 -156.3596
150.994951 89.544 -156.5901
152.089123 89.554 -156.8200
153.191223 89.557 -157.0499
154.301310 89.553 -157.2805
155.419441 89.545 -157.5127
156.545674 89.533 -157.7471
157.680069 89.521 -157.9844
158.822683 89.508 -158.2246
159.973578 89.497 -158.4678
161.132813 89.488 -158.7135
162.300447 89.482 -158.9614
163.476543 89.480 -159.2111
164.661162 89.480 -159.4627
165.854364 89.485 -159.7166
167.056213 89.493 -159.9737
168.266772 89.505 -160.2351
169.486102 89.522 -160.5023
170.714268 89.542 -160.7768
171.951334 89.566 -161.0598
173.197364 89.595 -161.3525
174.452424 89.627 -161.6558
175.716578 89.663 -161.9702
176.989893 89.701 -162.2958
178.272434 89.739 -162.6321
179.564270 89.777 -162.9780
180.865467 89.812 -163.3316
182.176092 89.843 -163.6901
183.496216 89.868 -164.0497
184.825905 89.886 -164.4056
186.165229 89.896 -164.7525
187.514259 89.898 -165.0844
188.873065 89.893 -165.3958
190.241717 89.881 -165.6816
191.620287 89.865 -165.9385
193.008847 89.847 -166.1652
194.407468 89.827 -166.3626
195.816225 89.807 -166.5336
197.235190 89.789 -166.6824
198.664438 89.772 -166.8133
200.104042 89.756 -166.9304
201.554078 89.741 -167.0363
203.014622 89.725 -167.1319
204.485750 89.708 -167.2161
205.967538 89.687 -167.2860
207.460064 89.664 -167.3368
208.963405 89.636 -167.3627
210.477640 89.604 -167.3572
212.002848 89.570 -167.3147
213.539108 89.533 -167.2305
215.086500 89.496 -167.1028
216.645105 89.462 -166.9321
218.215005 89.431 -166.7226
219.796281 89.405 -166.4822
221.389015 89.386 -166.2217
222.993292 89.373 -165.9547
224.609193 89.367 -165.6956
226.236804 89.365 -165.4589
227.876209 89.367 -165.2568
229.527494 89.369 -165.0989
231.190745 89.371 -164.9905
232.866048 89.371 -164.9333
234.553491 89.367 -164.9258
236.253163 89.358 -164.9639
237.965150 89.345 -165.0423
239.689544 89.327 -165.1548
241.426433 89.305 -165.2957
243.175909 89.278 -165.4591
244.938062 89.248 -165.6402
246.712984 89.216 -165.8345
248.500768 89.182 -166.0385
250.301507 89.148 -166.2495
252.115295 89.114 -166.4655
253.942226 89.081 -166.6847
255.782396 89.051 -166.9060
257.635901 89.023 -167.1284
259.502837 88.999 -167.3509
261.383301 88.979 -167.5727
263.277392 88.964 -167.7930
265.185209 88.953 -168.0112
267.106850 88.948 -168.2265
269.042417 88.947 -168.4386
270.992009 88.951 -168.6473
272.955729 88.959 -168.8526
274.933678 88.971 -169.0545
276.925961 88.986 -169.2531
278.932681 89.003 -169.4484
280.953942 89.023 -169.6405
282.989850 89.046 -169.8296
285.040511 89.070 -170.0156
287.106032 89.096 -170.1986
289.186521 89.126 -170.3781
291.282086 89.159 -170.5539
293.392836 89.197 -170.7256
295.518881 89.240 -170.8932
297.660333 89.288 -171.0569
299.817302 89.342 -171.2168
301.989902 89.400 -171.3731
304.178245 89.462 -171.5259
306.382446 89.525 -171.6755
308.602620 89.589 -171.8217
310.838882 89.651 -171.9647
313.091348 89.709 -172.1043
315.360137 89.763 -172.2404
317.645367 89.810 -172.3729
319.947156 89.849 -172.5016
322.265625 89.881 -172.6265
324.600895 89.903 -172.7477
326.953086 89.916 -172.8656
329.322323 89.918 -172.9808
331.708729 89.910 -173.0937
334.112427 89.891 -173.2049
336.533543 89.862 -173.3150
338.972204 89.823 -173.4244
341.428536 89.775 -173.5336
343.902668 89.718 -173.6430
346.394729 89.654 -173.7531
348.904848 89.584 -173.8640
351.433156 89.511 -173.9762
353.979786 89.436 -174.0896
356.544869 89.362 -174.2041
359.128540 89.291 -174.3192
361.730934 89.227 -174.4343
364.352185 89.171 -174.5484
366.992431 89.128 -174.6608
369.651810 89.099 -174.7708
372.330459 89.086 -174.8777
375.028519 89.090 -174.9814
377.746130 89.111 -175.0815
380.483434 89.149 -175.1781
383.240574 89.203 -175.2715
386.017693 89.270 -175.3620
388.814937 89.348 -175.4500
391.632450 89.434 -175.5362
394.470380 89.525 -175.6213
397.328875 89.619 -175.7057
400.208084 89.714 -175.7899
403.108157 89.807 -175.8739
406.029245 89.898 -175.9578
408.971500 89.985 -176.0410
411.935076 90.068 -176.1229
414.920127 90.147 -176.2027
417.926810 90.222 -176.2792
420.955280 90.295 -176.3513
424.005695 90.366 -176.4179
427.078215 90.436 -176.4777
430.173000 90.506 -176.5295
433.290211 90.575 -176.5722
436.430010 90.644 -176.6048
439.592562 90.712 -176.6262
442.778031 90.780 -176.6360
445.986583 90.844 -176.6339
449.218386 90.906 -176.6203
452.473607 90.962 -176.5957
455.752418 91.012 -176.5613
459.054987 91.054 -176.5180
462.381489 91.087 -176.4671
465.732096 91.112 -176.4096
469.106983 91.127 -176.3465
472.506325 91.134 -176.2787
475.930301 91.132 -176.2066
479.379088 91.122 -176.1309
482.852867 91.106 -176.0520
486.351817 91.085 -175.9706
489.876123 91.059 -175.8874
493.425968 91.031 -175.8039
497.001536 91.000 -175.7219
500.603014 90.969 -175.6438
504.230589 90.936 -175.5727
507.884452 90.902 -175.5121
511.564792 90.868 -175.4655
515.271802 90.833 -175.4363
519.005673 90.797 -175.4274
522.766602 90.761 -175.4409
526.554785 90.725 -175.4781
530.370418 90.690 -175.5391
534.213700 90.657 -175.6229
538.084833 90.627 -175.7276
541.984018 90.602 -175.8500
545.911457 90.583 -175.9866
549.867357 90.569 -176.1335
553.851922 90.562 -176.2868
557.865362 90.559 -176.4429
561.907884 90.561 -176.5988
565.979700 90.566 -176.7519
570.081022 90.572 -176.9006
574.212064 90.577 -177.0437
578.373042 90.579 -177.1804
582.564171 90.577 -177.3103
586.785671 90.569 -177.4331
591.037762 90.554 -177.5484
595.320665 90.530 -177.6556
599.634604 90.498 -177.7538
603.979804 90.456 -177.8416
608.356491 90.405 -177.9167
612.764893 90.345 -177.9760
617.205240 90.276 -178.0155
621.677763 90.200 -178.0301
626.182696 90.118 -178.0142
630.720274 90.032 -177.9621
635.290733 89.945 -177.8686
639.894312 89.860 -177.7300
644.531250 89.780 -177.5451
649.201789 89.708 -177.3160
653.906173 89.647 -177.0485
658.644647 89.600 -176.7519
663.417457 89.567 -176.4377
668.224854 89.548 -176.1188
673.067086 89.542 -175.8070
677.944408 89.546 -175.5125
682.857073 89.557 -175.2420
687.805336 89.573 -174.9991
692.789457 89.592 -174.7846
697.809695 89.609 -174.5968
702.866312 89.624 -174.4328
707.959571 89.636 -174.2890
713.089738 89.643 -174.1623
718.257080 89.644 -174.0502
723.461867 89.641 -173.9508
728.704370 89.632 -173.8624
733.984862 89.619 -173.7833
739.303619 89.602 -173.7117
744.660918 89.582 -173.6455
750.057038 89.558 -173.5829
755.492260 89.532 -173.5221
760.966869 89.504 -173.4616
766.481148 89.475 -173.4005
772.035387 89.443 -173.3382
777.629873 89.409 -173.2743
783.264900 89.373 -173.2088
788.940760 89.332 -173.1418
794.657750 89.288 -173.0737
800.416168 89.238 -173.0047
806.216313 89.182 -172.9351
812.058489 89.120 -172.8653
817.943000 89.051 -172.7954
823.870152 88.975 -172.7260
829.840255 88.893 -172.6575
835.853619 88.806 -172.5903
841.910559 88.714 -172.5251
848.011390 88.618 -172.4623
854.156430 88.518 -172.4021
860.346000 88.417 -172.3438
866.580422 88.314 -172.2862
872.860020 88.211 -172.2277
879.185124 88.108 -172.1663
885.556062 88.008 -172.0999
891.973166 87.911 -172.0268
898.436771 87.818 -171.9459
904.947215 87.731 -171.8566
911.504835 87.652 -171.7589
918.109975 87.580 -171.6534
924.762978 87.518 -171.5406
931.464192 87.464 -171.4211
938.213966 87.421 -171.2952
945.012651 87.387 -171.1629
951.860602 87.362 -171.0239
958.758176 87.346 -170.8773
965.705733 87.337 -170.7218
972.703635 87.335 -170.5559
979.752246 87.340 -170.3783
986.851935 87.350 -170.1873
994.003071 87.366 -169.9820
1001.206027 87.387 -169.7618
1008.461179 87.413 -169.5271
1015.768904 87.446 -169.2789
1023.129584 87.485 -169.0191
1030.543603 87.532 -168.7504
1038.011347 87.587 -168.4757
1045.533205 87.651 -168.1983
1053.109569 87.723 -167.9210
1060.740836 87.803 -167.6459
1068.427401 87.891 -167.3740
1076.169666 87.986 -167.1048
1083.968035 88.086 -166.8369
1091.822915 88.189 -166.5679
1099.734713 88.293 -166.2953
1107.703844 88.398 -166.0168
1115.730723 88.500 -165.7304
1123.815768 88.599 -165.4348
1131.959400 88.694 -165.1293
1140.162045 88.784 -164.8135
1148.424129 88.868 -164.4876
1156.746083 88.947 -164.1521
1165.128342 89.021 -163.8081
1173.571343 89.091 -163.4569
1182.075524 89.158 -163.1002
1190.641331 89.223 -162.7396
1199.269209 89.288 -162.3760
1207.959608 89.352 -162.0095
1216.712981 89.416 -161.6391
1225.529785 89.481 -161.2622
1234.410479 89.545 -160.8749
1243.355526 89.609 -160.4727
1252.365393 89.673 -160.0513
1261.440549 89.736 -159.6069
1270.581467 89.799 -159.1377
1279.788624 89.861 -158.6431
1289.062500 89.923 -158.1247
1298.403578 89.986 -157.5853
1307.812346 90.049 -157.0287
1317.289293 90.112 -156.4592
1326.834914 90.177 -155.8807
1336.449707 90.242 -155.2965
1346.134173 90.309 -154.7088
1355.888816 90.377 -154.1190
1365.714145 90.445 -153.5273
1375.610673 90.515 -152.9328
1385.578915 90.585 -152.3338
1395.619391 90.656 -151.7277
1405.732624 90.729 -151.1125
1415.919142 90.805 -150.4871
1426.179476 90.884 -149.8519
1436.514160 90.969 -149.2100
1446.923734 91.060 -148.5671
1457.408740 91.158 -147.9308
1467.969724 91.264 -147.3093
1478.607238 91.379 -146.7103
1489.321836 91.502 -146.1395
1500.114076 91.632 -145.6006
1510.984521 91.770 -145.0949
1521.933737 91.914 -144.6220
1532.962297 92.064 -144.1808
1544.070773 92.219 -143.7702
1555.259747 92.378 -143.3896
1566.529800 92.540 -143.0385
1577.881521 92.704 -142.7170
1589.315501 92.869 -142.4244
1600.832336 93.035 -142.1599
1612.432627 93.201 -141.9220
1624.116978 93.367 -141.7090
1635.886000 93.532 -141.5192
1647.740304 93.697 -141.3511
1659.680509 93.862 -141.2035
1671.707238 94.026 -141.0755
1683.821118 94.191 -140.9663
1696.022780 94.356 -140.8745
1708.312860 94.522 -140.7984
1720.692000 94.689 -140.7366
1733.160843 94.858 -140.6883
1745.720041 95.029 -140.6544
1758.370248 95.202 -140.6367
1771.112124 95.376 -140.6385
1783.946332 95.552 -140.6639
1796.873543 95.729 -140.7172
1809.894429 95.905 -140.8024
1823.009670 96.079 -140.9227
1836.219950 96.252 -141.0800
1849.525956 96.422 -141.2748
1862.928384 96.588 -141.5063
1876.427931 96.750 -141.7724
1890.025301 96.908 -142.0694
1903.721204 97.061 -142.3918
1917.516352 97.210 -142.7336
1931.411466 97.355 -143.0891
1945.407270 97.497 -143.4546
1959.504493 97.636 -143.8296
1973.703870 97.772 -144.2170
1988.006142 97.905 -144.6227
2002.412054 98.034 -145.0548
2016.922357 98.158 -145.5222
2031.537808 98.275 -146.0332
2046.259169 98.384 -146.5937
2061.087206 98.481 -147.2056
2076.022694 98.566 -147.8669
2091.066410 98.636 -148.5716
2106.219139 98.692 -149.3112
2121.481671 98.734 -150.0752
2136.854802 98.762 -150.8527
2152.339333 98.778 -151.6335
2167.936071 98.784 -152.4095
2183.645829 98.782 -153.1758
2199.469427 98.776 -153.9311
2215.407689 98.768 -154.6773
2231.461446 98.759 -155.4193
2247.631536 98.751 -156.1630
2263.918800 98.745 -156.9146
2280.324089 98.739 -157.6785
2296.848258 98.733 -158.4574
2313.492167 98.726 -159.2510
2330.256685 98.716 -160.0565
2347.142685 98.703 -160.8688
2364.151049 98.686 -161.6815
2381.282662 98.665 -162.4882
2398.538418 98.639 -163.2836
2415.919216 98.610 -164.0642
2433.425962 98.578 -164.8287
2451.059570 98.542 -165.5767
2468.820958 98.505 -166.3082
2486.711052 98.466 -167.0232
2504.730786 98.426 -167.7213
2522.881098 98.385 -168.4023
2541.162934 98.343 -169.0653
2559.577248 98.303 -169.7096
2578.125000 98.264 -170.3333
2596.807157 98.227 -170.9336
2615.624692 98.192 -171.5063
2634.578586 98.162 -172.0462
2653.669829 98.138 -172.5488
2672.899414 98.122 -173.0113
2692.268345 98.115 -173.4337
2711.777632 98.119 -173.8192
2731.428290 98.134 -174.1731
2751.221345 98.159 -174.5017
2771.157829 98.195 -174.8113
2791.238781 98.238 -175.1067
2811.465248 98.286 -175.3904
2831.838284 98.337 -175.6625
2852.358952 98.388 -175.9206
2873.028321 98.437 -176.1607
2893.847468 98.483 -176.3786
2914.817480 98.524 -176.5715
2935.939449 98.560 -176.7387
2957.214476 98.590 -176.8829
2978.643672 98.613 -177.0085
3000.228152 98.629 -177.1203
3021.969041 98.638 -177.2224
3043.867475 98.638 -177.3165
3065.924593 98.629 -177.4024
3088.141547 98.612 -177.4780
3110.519493 98.587 -177.5405
3133.059600 98.554 -177.5865
3155.763041 98.516 -177.6129
3178.631001 98.473 -177.6179
3201.664672 98.428 -177.6009
3224.865254 98.381 -177.5635
3248.233957 98.334 -177.5089
3271.771999 98.289 -177.4416
3295.480608 98.246 -177.3663
3319.361019 98.206 -177.2877
3343.414477 98.169 -177.2106
3367.642236 98.137 -177.1404
3392.045560 98.108 -177.0833
3416.625721 98.084 -177.0454
3441.383999 98.063 -177.0320
3466.321686 98.045 -177.0460
3491.440082 98.029 -177.0868
3516.740496 98.014 -177.1512
3542.224247 98.001 -177.2336
3567.892664 97.990 -177.3281
3593.747085 97.980 -177.4297
3619.788858 97.974 -177.5361
3646.019340 97.972 -177.6475
3672.439900 97.974 -177.7672
3699.051913 97.981 -177.8998
3725.856768 97.991 -178.0495
3752.855862 98.003 -178.2181
3780.050603 98.016 -178.4027
3807.442408 98.027 -178.5958
3835.032705 98.036 -178.7860
3862.822933 98.043 -178.9612
3890.814540 98.047 -179.1101
3919.008986 98.049 -179.2249
3947.407741 98.051 -179.3017
3976.012284 98.052 -179.3399
4004.824108 98.054 -179.3411
4033.844715 98.056 -179.3069
4063.075616 98.058 -179.2386
4092.518337 98.061 -179.1362
4122.174412 98.063 -178.9996
4152.045387 98.065 -178.8290
4182.132820 98.068 -178.6253
4212.438278 98.071 -178.3900
4242.963342 98.074 -178.1249
4273.709604 98.079 -177.8315
4304.678665 98.083 -177.5109
4335.872141 98.088 -177.1640
4367.291658 98.093 -176.7914
4398.938854 98.098 -176.3935
4430.815378 98.103 -175.9713
4462.922893 98.107 -175.5253
4495.263072 98.111 -175.0562
4527.837601 98.114 -174.5641
4560.648179 98.115 -174.0489
4593.696515 98.116 -173.5109
4626.984334 98.117 -172.9513
4660.513370 98.119 -172.3729
4694.285371 98.123 -171.7806
4728.302098 98.131 -171.1811
4762.565324 98.144 -170.5829
4797.076835 98.164 -169.9960
4831.838432 98.191 -169.4310
4866.851925 98.227 -168.8987
4902.119140 98.271 -168.4101
4937.641916 98.325 -167.9753
4973.422105 98.387 -167.6029
5009.461572 98.458 -167.2995
5045.762195 98.535 -167.0688
5082.325868 98.617 -166.9118
5119.154496 98.703 -166.8258
5156.250000 98.791 -166.8057
5193.614313 98.879 -166.8441
5231.249383 98.968 -166.9324
5269.157173 99.056 -167.0623
5307.339658 99.144 -167.2266
5345.798829 99.231 -167.4202
5384.536691 99.317 -167.6408
5423.555263 99.405 -167.8888
5462.856580 99.493 -168.1674
5502.442691 99.582 -168.4816
5542.315659 99.672 -168.8374
5582.477563 99.763 -169.2414
5622.930497 99.855 -169.6997
5663.676569 99.947 -170.2174
5704.717904 100.039 -170.7985
5746.056642 100.130 -171.4453
5787.694937 100.218 -172.1578
5829.634960 100.302 -172.9343
5871.878898 100.381 -173.7703
5914.428953 100.453 -174.6585
5957.287343 100.515 -175.5889
6000.456303 100.566 -176.5481
6043.938083 100.604 -177.5199
6087.734950 100.626 -178.4852
6131.849187 100.632 -179.4224
6176.283094 100.620 179.6916
6221.038987 100.590 178.8810
6266.119200 100.543 178.1695
6311.526083 100.480 177.5797
6357.262002 100.402 177.1315
6403.329344 100.314 176.8411
6449.730508 100.218 176.7194
6496.467914 100.121 176.7708
6543.543998 100.027 176.9922
6590.961215 99.944 177.3719
6638.722037 99.876 177.8895
6686.828954 99.832 178.5153
6735.284473 99.817 179.2112
6784.091120 99.837 179.9324
6833.251441 99.896 -179.3715
6882.767998 99.996 -178.7538
6932.643372 100.137 -178.2679
6982.880164 100.317 -177.9646
7033.480992 100.533 -177.8895
7084.448495 100.777 -178.0806
7135.785329 101.042 -178.5670
7187.494171 101.320 -179.3683
7239.577717 101.602 179.5063
7292.038681 101.879 178.0565
7344.879799 102.142 176.2902
7398.103826 102.385 174.2219
7451.713536 102.601 171.8708
7505.711724 102.785 169.2591
7560.101205 102.930 166.4110
7614.884815 103.033 163.3513
7670.065409 103.090 160.1049
7725.645865 103.098 156.6970
7781.629080 103.054 153.1537
7838.017972 102.953 149.5029
7894.815481 102.792 145.7755
7952.024569 102.570 142.0070
8009.648217 102.282 138.2384
8067.689429 101.926 134.5179
8126.151233 101.500 130.9016
8185.036674 101.004 127.4541
8244.348824 100.437 124.2505
8304.090774 99.800 121.3789
8364.265639 99.097 118.9465
8424.876556 98.331 117.0906
8485.926684 97.509 115.9989
8547.419207 96.640 115.9474
8609.357330 95.738 117.3680
8671.744282 94.824 120.9631
8734.583316 93.926 127.8582
8797.877707 93.084 139.5409
8861.630756 92.348 156.5750
8925.845785 91.771 175.7681
8990.526143 91.399 -168.3057
9055.675202 91.252 -157.6106
9121.296357 91.321 -151.0799
9187.393031 91.565 -147.2961
9253.968668 91.934 -145.2876
9321.026740 92.377 -144.4716
9388.570742 92.856 -144.5047
9456.604196 93.338 -145.1808
9525.130648 93.802 -146.3718
9594.153671 94.234 -147.9937
9663.676863 94.622 -149.9867
9733.703850 94.957 -152.3026
9804.238280 95.234 -154.8984
9875.283832 95.447 -157.7306
9946.844210 95.592 -160.7536
10018.923143 95.667 -163.9173
10091.524390 95.669 -167.1678
10164.651736 95.599 -170.4478
10238.308993 95.458 -173.6988
10312.500000 95.249 -176.8630
10387.228626 94.975 -179.8861
10462.498767 94.643 177.2798
10538.314345 94.260 174.6750
10614.679315 93.832 172.3299
10691.597657 93.369 170.2646
10769.073381 92.877 168.4884
10847.110526 92.367 166.9998
10925.713161 91.846 165.7861
11004.885382 91.321 164.8242
11084.631318 90.799 164.0806
11164.955126 90.286 163.5121
11245.860993 89.786 163.0679
11327.353138 89.304 162.6920
11409.435808 88.840 162.3261
11492.113283 88.395 161.9144
11575.389873 87.967 161.4073
11659.269920 87.553 160.7655
11743.757796 87.149 159.9632
11828.857906 86.750 158.9896
11914.574686 86.350 157.8491
12000.912606 85.944 156.5595
12087.876166 85.529 155.1482
12175.469900 85.102 153.6470
12263.698373 84.664 152.0856
12352.566187 84.220 150.4834
12442.077974 83.777 148.8423
12532.238400 83.346 147.1405
12623.052165 82.938 145.3300
12714.524005 82.568 143.3386
12806.658687 82.245 141.0782
12899.461015 81.978 138.4566
12992.935827 81.767 135.3907
13087.087996 81.611 131.8179
13181.922430 81.503 127.7026
13277.444074 81.437 123.0384
13373.657907 81.408 117.8446
13470.568945 81.413 112.1615
13568.182241 81.451 106.0446
13666.502883 81.523 99.5594
13765.535996 81.629 92.7768
13865.286744 81.769 85.7694
13965.760328 81.938 78.6071
14066.961984 82.129 71.3538
14168.896989 82.331 64.0650
14271.570658 82.532 56.7878
14374.988342 82.720 49.5620
14479.155433 82.881 42.4229
14584.077362 83.005 35.4039
14689.759598 83.083 28.5385
14796.207652 83.109 21.8606
14903.427072 83.080 15.4047
15011.423448 82.992 9.2051
15120.202410 82.848 3.2959
15229.769630 82.648 -2.2859
15340.130819 82.393 -7.4961
15451.291730 82.086 -12.2759
15563.258160 81.730 -16.5452
15676.035944 81.330 -20.1960
15789.630962 80.896 -23.0867
15904.049137 80.445 -25.0419
16019.296433 80.001 -25.8642
16135.378859 79.599 -25.3760
16252.302465 79.286 -23.5073
16370.073348 79.110 -20.4235
16488.697648 79.112 -16.6134
16608.181548 79.308 -12.8104
16728.531278 79.690 -9.7312
16849.753112 80.226 -7.8337
16971.853368 80.872 -7.2679
17094.838414 81.588 -7.9771
17218.714660 82.340 -9.8193
17343.488565 83.104 -12.6450
17469.166632 83.860 -16.3304
17595.755415 84.596 -20.7838
17723.261512 85.301 -25.9425
17851.691571 85.966 -31.7653
17981.052287 86.585 -38.2251
18111.350404 87.153 -45.3039
18242.592715 87.662 -52.9880
18374.786062 88.110 -61.2642
18507.937336 88.494 -70.1149
18642.053479 88.811 -79.5091
18777.141484 89.061 -89.3894
18913.208391 89.248 -99.6520
19050.261296 89.375 -110.1245
19188.307342 89.448 -120.5474
19327.353727 89.478 -130.5710
19467.407699 89.473 -139.7789
19608.476560 89.446 -147.7402
19750.567664 89.410 -154.0659
19893.688419 89.378 -158.4510
20037.846286 89.359 -160.6933
