* Measurement data measured by REW V5.31.3
* Source: EXCL: Headset (USB-C to 3.5mm Headphone Jack Adapter), MICROPHONE (Master Volume), 0, volume: 0.260
* Format: 256k Log Swept Sine, 1 sweep at -12.0 dBFS with no timing reference
* Dated: Feb 9, 2025 9:19:38 PM
* REW Settings:
*  C-weighting compensation: Off
*  Target level: 75.0 dB
* Note: ; 
* Measurement: KSC75 L7
* Smoothing: 1/6 octave
* Frequency Step: 96 ppo
* Start Frequency: 20.0 Hz
*
* Freq(Hz) SPL(dB) Phase(degrees)
20.141602 86.718 4.2336
20.287556 86.749 3.8926
20.434568 86.785 3.4370
20.582645 86.823 2.8810
20.731796 86.856 2.2420
20.882027 86.879 1.5401
21.033346 86.890 0.7976
21.185763 86.884 0.0382
21.339284 86.861 -0.7146
21.493917 86.823 -1.4379
21.649671 86.771 -2.1116
21.806553 86.708 -2.7196
21.964572 86.640 -3.2512
22.123737 86.572 -3.7023
22.284054 86.508 -4.0758
22.445534 86.455 -4.3817
22.608183 86.417 -4.6356
22.772012 86.396 -4.8571
22.937027 86.395 -5.0675
23.103238 86.413 -5.2867
23.270654 86.448 -5.5314
23.439282 86.499 -5.8131
23.609133 86.562 -6.1379
23.780215 86.634 -6.5062
23.952536 86.713 -6.9138
24.126106 86.796 -7.3535
24.300934 86.883 -7.8165
24.477028 86.972 -8.2941
24.654399 87.064 -8.7792
24.833055 87.158 -9.2669
25.013005 87.257 -9.7555
25.194260 87.360 -10.2462
25.376828 87.468 -10.7427
25.560719 87.581 -11.2505
25.745942 87.699 -11.7759
25.932508 87.821 -12.3246
26.120426 87.947 -12.9017
26.309705 88.076 -13.5101
26.500356 88.205 -14.1505
26.692388 88.334 -14.8217
26.885812 88.460 -15.5202
27.080638 88.584 -16.2405
27.276876 88.702 -16.9758
27.474535 88.815 -17.7181
27.673627 88.921 -18.4586
27.874161 89.022 -19.1885
28.076149 89.118 -19.8994
28.279600 89.211 -20.5837
28.484526 89.305 -21.2359
28.690937 89.402 -21.8527
28.898843 89.508 -22.4338
29.108256 89.625 -22.9822
29.319186 89.756 -23.5035
29.531645 89.903 -24.0054
29.745644 90.067 -24.4966
29.961193 90.246 -24.9853
30.178304 90.438 -25.4773
30.396989 90.637 -25.9755
30.617258 90.839 -26.4787
30.839123 91.039 -26.9820
31.062596 91.230 -27.4771
31.287688 91.408 -27.9539
31.514412 91.568 -28.4023
31.742778 91.707 -28.8136
31.972800 91.822 -29.1824
32.204488 91.913 -29.5073
32.437855 91.978 -29.7923
32.672913 92.017 -30.0460
32.909674 92.032 -30.2815
33.148151 92.025 -30.5146
33.388356 91.998 -30.7626
33.630302 91.954 -31.0420
33.874001 91.896 -31.3666
34.119466 91.826 -31.7463
34.366710 91.748 -32.1857
34.615745 91.667 -32.6840
34.866585 91.585 -33.2355
35.119243 91.506 -33.8310
35.373731 91.435 -34.4588
35.630064 91.376 -35.1071
35.888254 91.332 -35.7650
36.148315 91.306 -36.4242
36.410261 91.302 -37.0788
36.674104 91.320 -37.7254
36.939860 91.361 -38.3629
37.207542 91.423 -38.9911
37.477163 91.506 -39.6105
37.748738 91.607 -40.2217
38.022281 91.724 -40.8256
38.297806 91.857 -41.4231
38.575327 92.005 -42.0158
38.854860 92.166 -42.6058
39.136419 92.342 -43.1955
39.420017 92.532 -43.7872
39.705671 92.737 -44.3825
39.993395 92.958 -44.9821
40.283203 93.195 -45.5850
40.575112 93.447 -46.1890
40.869136 93.715 -46.7911
41.165290 93.996 -47.3875
41.463591 94.290 -47.9743
41.764053 94.593 -48.5481
42.066693 94.902 -49.1055
42.371525 95.213 -49.6443
42.678567 95.524 -50.1633
42.987834 95.832 -50.6631
43.299341 96.133 -51.1464
43.613106 96.426 -51.6187
43.929145 96.709 -52.0875
44.247473 96.980 -52.5616
44.568109 97.237 -53.0495
44.891068 97.480 -53.5577
45.216367 97.707 -54.0891
45.544023 97.917 -54.6426
45.874054 98.110 -55.2139
46.206476 98.287 -55.7962
46.541307 98.447 -56.3821
46.878565 98.591 -56.9659
47.218266 98.720 -57.5439
47.560429 98.833 -58.1154
47.905072 98.933 -58.6821
48.252212 99.019 -59.2471
48.601867 99.093 -59.8140
48.954056 99.155 -60.3857
49.308798 99.206 -60.9642
49.666109 99.249 -61.5502
50.026010 99.286 -62.1435
50.388520 99.317 -62.7433
50.753656 99.347 -63.3485
51.121437 99.375 -63.9581
51.491884 99.404 -64.5710
51.865016 99.436 -65.1863
52.240851 99.470 -65.8029
52.619410 99.509 -66.4200
53.000712 99.552 -67.0368
53.384777 99.598 -67.6532
53.771625 99.649 -68.2693
54.161276 99.702 -68.8856
54.553751 99.758 -69.5024
54.949070 99.814 -70.1203
55.347254 99.870 -70.7394
55.748323 99.925 -71.3598
56.152298 99.978 -71.9810
56.559201 100.029 -72.6025
56.969052 100.077 -73.2234
57.381873 100.121 -73.8430
57.797686 100.163 -74.4605
58.216512 100.201 -75.0760
58.638373 100.237 -75.6903
59.063291 100.269 -76.3048
59.491288 100.298 -76.9215
59.922386 100.324 -77.5422
60.356608 100.347 -78.1683
60.793977 100.368 -78.8005
61.234515 100.388 -79.4390
61.678246 100.407 -80.0835
62.125192 100.425 -80.7336
62.575377 100.445 -81.3886
63.028824 100.465 -82.0478
63.485557 100.488 -82.7106
63.945599 100.512 -83.3764
64.408975 100.539 -84.0447
64.875709 100.569 -84.7149
65.345825 100.602 -85.3864
65.819348 100.638 -86.0588
66.296302 100.678 -86.7315
66.776713 100.722 -87.4042
67.260604 100.769 -88.0768
67.748002 100.819 -88.7493
68.238932 100.871 -89.4221
68.733420 100.926 -90.0956
69.231490 100.983 -90.7707
69.733170 101.041 -91.4478
70.238485 101.101 -92.1277
70.747463 101.161 -92.8107
71.260128 101.223 -93.4973
71.776508 101.285 -94.1877
72.296630 101.348 -94.8822
72.820521 101.412 -95.5809
73.348209 101.476 -96.2841
73.879720 101.540 -96.9916
74.415083 101.605 -97.7035
74.954326 101.669 -98.4196
75.497475 101.733 -99.1397
76.044561 101.796 -99.8633
76.595612 101.857 -100.5902
77.150655 101.917 -101.3195
77.709720 101.974 -102.0509
78.272837 102.028 -102.7839
78.840034 102.079 -103.5183
79.411342 102.126 -104.2543
79.986789 102.169 -104.9921
80.566406 102.207 -105.7323
81.150224 102.241 -106.4754
81.738272 102.272 -107.2216
82.330581 102.299 -107.9711
82.927182 102.323 -108.7239
83.528107 102.347 -109.4795
84.133386 102.373 -110.2374
84.743051 102.401 -110.9972
85.357134 102.436 -111.7583
85.975667 102.479 -112.5204
86.598682 102.535 -113.2831
87.226212 102.607 -114.0464
87.858289 102.697 -114.8101
88.494946 102.808 -115.5741
89.136217 102.941 -116.3382
89.782135 103.097 -117.1020
90.432733 103.273 -117.8650
91.088046 103.468 -118.6264
91.748108 103.678 -119.3855
92.412952 103.898 -120.1411
93.082615 104.122 -120.8923
93.757130 104.347 -121.6379
94.436533 104.566 -122.3772
95.120859 104.775 -123.1093
95.810144 104.970 -123.8338
96.504423 105.149 -124.5503
97.203734 105.310 -125.2587
97.908112 105.452 -125.9586
98.617595 105.575 -126.6499
99.332219 105.683 -127.3322
100.052021 105.775 -128.0054
100.777039 105.854 -128.6695
101.507311 105.923 -129.3248
102.242875 105.984 -129.9719
102.983769 106.038 -130.6116
103.730032 106.087 -131.2449
104.481702 106.132 -131.8728
105.238820 106.171 -132.4964
106.001424 106.206 -133.1168
106.769554 106.234 -133.7346
107.543250 106.254 -134.3503
108.322553 106.264 -134.9642
109.107503 106.262 -135.5762
109.898141 106.248 -136.1863
110.694508 106.221 -136.7945
111.496646 106.180 -137.4007
112.304596 106.126 -138.0051
113.118402 106.061 -138.6082
113.938104 105.985 -139.2103
114.763747 105.900 -139.8115
115.595372 105.810 -140.4120
116.433024 105.716 -141.0119
117.276746 105.619 -141.6110
118.126581 105.523 -142.2089
118.982575 105.428 -142.8054
119.844772 105.335 -143.4003
120.713217 105.245 -143.9933
121.587954 105.157 -144.5845
122.469031 105.070 -145.1741
123.356492 104.983 -145.7619
124.250384 104.896 -146.3479
125.150753 104.806 -146.9319
126.057647 104.713 -147.5138
126.971113 104.614 -148.0931
127.891198 104.508 -148.6694
128.817950 104.396 -149.2423
129.751418 104.276 -149.8111
130.691651 104.150 -150.3754
131.638696 104.017 -150.9349
132.592604 103.880 -151.4893
133.553425 103.740 -152.0385
134.521208 103.601 -152.5823
135.496004 103.464 -153.1207
136.477864 103.335 -153.6537
137.466839 103.216 -154.1811
138.462981 103.111 -154.7031
139.466340 103.021 -155.2195
140.476971 102.949 -155.7302
141.494925 102.895 -156.2352
142.520256 102.859 -156.7342
143.553016 102.838 -157.2269
144.593260 102.830 -157.7133
145.641043 102.832 -158.1929
146.696418 102.838 -158.6658
147.759441 102.847 -159.1317
148.830166 102.853 -159.5907
149.908651 102.855 -160.0426
150.994951 102.850 -160.4873
152.089123 102.838 -160.9247
153.191223 102.818 -161.3545
154.301310 102.790 -161.7764
155.419441 102.757 -162.1901
156.545674 102.720 -162.5952
157.680069 102.680 -162.9911
158.822683 102.640 -163.3773
159.973578 102.600 -163.7536
161.132813 102.562 -164.1195
162.300447 102.527 -164.4749
163.476543 102.496 -164.8198
164.661162 102.470 -165.1545
165.854364 102.447 -165.4794
167.056213 102.430 -165.7950
168.266772 102.418 -166.1024
169.486102 102.411 -166.4026
170.714268 102.411 -166.6970
171.951334 102.417 -166.9876
173.197364 102.429 -167.2766
174.452424 102.448 -167.5663
175.716578 102.472 -167.8597
176.989893 102.502 -168.1596
178.272434 102.536 -168.4690
179.564270 102.573 -168.7906
180.865467 102.610 -169.1269
182.176092 102.647 -169.4797
183.496216 102.682 -169.8501
184.825905 102.714 -170.2387
186.165229 102.741 -170.6449
187.514259 102.763 -171.0675
188.873065 102.779 -171.5046
190.241717 102.791 -171.9538
191.620287 102.798 -172.4121
193.008847 102.800 -172.8766
194.407468 102.799 -173.3440
195.816225 102.794 -173.8112
197.235190 102.786 -174.2753
198.664438 102.776 -174.7332
200.104042 102.762 -175.1825
201.554078 102.746 -175.6209
203.014622 102.727 -176.0464
204.485750 102.704 -176.4576
205.967538 102.677 -176.8535
207.460064 102.647 -177.2337
208.963405 102.613 -177.5982
210.477640 102.575 -177.9473
212.002848 102.534 -178.2816
213.539108 102.490 -178.6018
215.086500 102.444 -178.9088
216.645105 102.396 -179.2034
218.215005 102.347 -179.4863
219.796281 102.295 -179.7586
221.389015 102.243 179.9790
222.993292 102.188 179.7255
224.609193 102.131 179.4799
226.236804 102.071 179.2416
227.876209 102.007 179.0096
229.527494 101.938 178.7833
231.190745 101.864 178.5625
232.866048 101.786 178.3468
234.553491 101.703 178.1362
236.253163 101.615 177.9307
237.965150 101.524 177.7303
239.689544 101.431 177.5350
241.426433 101.335 177.3445
243.175909 101.239 177.1588
244.938062 101.142 176.9778
246.712984 101.047 176.8012
248.500768 100.953 176.6290
250.301507 100.862 176.4609
252.115295 100.775 176.2968
253.942226 100.691 176.1365
255.782396 100.613 175.9800
257.635901 100.539 175.8270
259.502837 100.471 175.6777
261.383301 100.409 175.5320
263.277392 100.354 175.3900
265.185209 100.306 175.2515
267.106850 100.264 175.1165
269.042417 100.228 174.9850
270.992009 100.199 174.8568
272.955729 100.176 174.7318
274.933678 100.158 174.6100
276.925961 100.145 174.4915
278.932681 100.135 174.3759
280.953942 100.128 174.2634
282.989850 100.125 174.1537
285.040511 100.124 174.0466
287.106032 100.126 173.9420
289.186521 100.132 173.8395
291.282086 100.143 173.7388
293.392836 100.158 173.6398
295.518881 100.179 173.5421
297.660333 100.206 173.4457
299.817302 100.239 173.3506
301.989902 100.277 173.2567
304.178245 100.319 173.1640
306.382446 100.364 173.0724
308.602620 100.408 172.9822
310.838882 100.452 172.8932
313.091348 100.492 172.8058
315.360137 100.528 172.7198
317.645367 100.557 172.6357
319.947156 100.580 172.5533
322.265625 100.594 172.4730
324.600895 100.599 172.3947
326.953086 100.595 172.3186
329.322323 100.581 172.2448
331.708729 100.556 172.1734
334.112427 100.521 172.1044
336.533543 100.476 172.0377
338.972204 100.421 171.9733
341.428536 100.357 171.9110
343.902668 100.284 171.8506
346.394729 100.204 171.7922
348.904848 100.119 171.7355
351.433156 100.029 171.6806
353.979786 99.938 171.6274
356.544869 99.848 171.5759
359.128540 99.762 171.5262
361.730934 99.682 171.4783
364.352185 99.611 171.4321
366.992431 99.553 171.3877
369.651810 99.509 171.3450
372.330459 99.482 171.3040
375.028519 99.472 171.2647
377.746130 99.480 171.2270
380.483434 99.506 171.1909
383.240574 99.547 171.1564
386.017693 99.603 171.1234
388.814937 99.669 171.0919
391.632450 99.745 171.0618
394.470380 99.826 171.0332
397.328875 99.911 171.0060
400.208084 99.996 170.9800
403.108157 100.081 170.9553
406.029245 100.163 170.9318
408.971500 100.243 170.9092
411.935076 100.319 170.8878
414.920127 100.393 170.8673
417.926810 100.464 170.8478
420.955280 100.533 170.8294
424.005695 100.601 170.8123
427.078215 100.668 170.7965
430.173000 100.736 170.7824
433.290211 100.804 170.7701
436.430010 100.872 170.7598
439.592562 100.940 170.7513
442.778031 101.007 170.7449
445.986583 101.071 170.7402
449.218386 101.132 170.7373
452.473607 101.186 170.7359
455.752418 101.234 170.7361
459.054987 101.273 170.7375
462.381489 101.302 170.7402
465.732096 101.322 170.7439
469.106983 101.331 170.7487
472.506325 101.329 170.7545
475.930301 101.318 170.7613
479.379088 101.298 170.7693
482.852867 101.270 170.7787
486.351817 101.235 170.7893
489.876123 101.194 170.8014
493.425968 101.148 170.8149
497.001536 101.097 170.8299
500.603014 101.043 170.8463
504.230589 100.986 170.8643
507.884452 100.926 170.8837
511.564792 100.863 170.9048
515.271802 100.797 170.9273
519.005673 100.729 170.9515
522.766602 100.659 170.9773
526.554785 100.590 171.0047
530.370418 100.522 171.0338
534.213700 100.456 171.0644
538.084833 100.396 171.0967
541.984018 100.343 171.1306
545.911457 100.299 171.1661
549.867357 100.263 171.2033
553.851922 100.237 171.2419
557.865362 100.219 171.2822
561.907884 100.209 171.3239
565.979700 100.205 171.3670
570.081022 100.205 171.4116
574.212064 100.207 171.4576
578.373042 100.209 171.5051
582.564171 100.209 171.5541
586.785671 100.205 171.6044
591.037762 100.196 171.6560
595.320665 100.181 171.7089
599.634604 100.159 171.7630
603.979804 100.131 171.8182
608.356491 100.095 171.8745
612.764893 100.053 171.9319
617.205240 100.006 171.9903
621.677763 99.953 172.0496
626.182696 99.897 172.1099
630.720274 99.840 172.1712
635.290733 99.782 172.2336
639.894312 99.726 172.2973
644.531250 99.674 172.3624
649.201789 99.627 172.4292
653.906173 99.586 172.4979
658.644647 99.553 172.5687
663.417457 99.526 172.6421
668.224854 99.506 172.7182
673.067086 99.492 172.7972
677.944408 99.483 172.8795
682.857073 99.476 172.9648
687.805336 99.471 173.0536
692.789457 99.465 173.1456
697.809695 99.457 173.2408
702.866312 99.447 173.3394
707.959571 99.433 173.4410
713.089738 99.415 173.5457
718.257080 99.393 173.6530
723.461867 99.367 173.7631
728.704370 99.336 173.8755
733.984862 99.302 173.9903
739.303619 99.266 174.1072
744.660918 99.227 174.2260
750.057038 99.187 174.3465
755.492260 99.146 174.4685
760.966869 99.105 174.5917
766.481148 99.063 174.7159
772.035387 99.020 174.8408
777.629873 98.975 174.9662
783.264900 98.929 175.0920
788.940760 98.880 175.2181
794.657750 98.827 175.3445
800.416168 98.769 175.4714
806.216313 98.705 175.5989
812.058489 98.636 175.7271
817.943000 98.560 175.8561
823.870152 98.478 175.9858
829.840255 98.390 176.1162
835.853619 98.297 176.2472
841.910559 98.200 176.3787
848.011390 98.099 176.5107
854.156430 97.995 176.6432
860.346000 97.891 176.7763
866.580422 97.786 176.9101
872.860020 97.682 177.0448
879.185124 97.581 177.1805
885.556062 97.483 177.3172
891.973166 97.390 177.4552
898.436771 97.303 177.5944
904.947215 97.222 177.7349
911.504835 97.150 177.8766
918.109975 97.086 178.0198
924.762978 97.032 178.1643
931.464192 96.987 178.3103
938.213966 96.953 178.4579
945.012651 96.929 178.6072
951.860602 96.914 178.7585
958.758176 96.909 178.9121
965.705733 96.912 179.0682
972.703635 96.923 179.2271
979.752246 96.940 179.3887
986.851935 96.963 179.5531
994.003071 96.992 179.7199
1001.206027 97.026 179.8891
1008.461179 97.065 -179.9395
1015.768904 97.109 -179.7660
1023.129584 97.158 -179.5902
1030.543603 97.213 -179.4121
1038.011347 97.275 -179.2313
1045.533205 97.345 -179.0478
1053.109569 97.422 -178.8613
1060.740836 97.506 -178.6721
1068.427401 97.598 -178.4803
1076.169666 97.697 -178.2862
1083.968035 97.802 -178.0902
1091.822915 97.910 -177.8923
1099.734713 98.021 -177.6928
1107.703844 98.133 -177.4915
1115.730723 98.243 -177.2883
1123.815768 98.351 -177.0832
1131.959400 98.454 -176.8761
1140.162045 98.552 -176.6674
1148.424129 98.644 -176.4572
1156.746083 98.731 -176.2459
1165.128342 98.813 -176.0338
1173.571343 98.891 -175.8211
1182.075524 98.965 -175.6079
1190.641331 99.038 -175.3944
1199.269209 99.110 -175.1805
1207.959608 99.182 -174.9664
1216.712981 99.255 -174.7524
1225.529785 99.329 -174.5388
1234.410479 99.404 -174.3261
1243.355526 99.480 -174.1151
1252.365393 99.556 -173.9063
1261.440549 99.631 -173.7005
1270.581467 99.705 -173.4979
1279.788624 99.776 -173.2986
1289.062500 99.844 -173.1024
1298.403578 99.909 -172.9085
1307.812346 99.970 -172.7164
1317.289293 100.028 -172.5250
1326.834914 100.083 -172.3334
1336.449707 100.134 -172.1410
1346.134173 100.184 -171.9470
1355.888816 100.231 -171.7508
1365.714145 100.275 -171.5521
1375.610673 100.318 -171.3503
1385.578915 100.359 -171.1450
1395.619391 100.399 -170.9358
1405.732624 100.436 -170.7227
1415.919142 100.473 -170.5057
1426.179476 100.509 -170.2855
1436.514160 100.546 -170.0629
1446.923734 100.583 -169.8390
1457.408740 100.621 -169.6152
1467.969724 100.662 -169.3928
1478.607238 100.706 -169.1731
1489.321836 100.754 -168.9574
1500.114076 100.805 -168.7461
1510.984521 100.860 -168.5395
1521.933737 100.918 -168.3371
1532.962297 100.980 -168.1379
1544.070773 101.044 -167.9402
1555.259747 101.111 -167.7423
1566.529800 101.179 -167.5419
1577.881521 101.248 -167.3370
1589.315501 101.319 -167.1262
1600.832336 101.390 -166.9081
1612.432627 101.461 -166.6822
1624.116978 101.533 -166.4483
1635.886000 101.606 -166.2068
1647.740304 101.680 -165.9585
1659.680509 101.756 -165.7045
1671.707238 101.833 -165.4463
1683.821118 101.912 -165.1857
1696.022780 101.993 -164.9246
1708.312860 102.078 -164.6649
1720.692000 102.165 -164.4086
1733.160843 102.255 -164.1575
1745.720041 102.348 -163.9133
1758.370248 102.443 -163.6776
1771.112124 102.540 -163.4513
1783.946332 102.638 -163.2349
1796.873543 102.736 -163.0286
1809.894429 102.833 -162.8321
1823.009670 102.930 -162.6449
1836.219950 103.026 -162.4662
1849.525956 103.120 -162.2953
1862.928384 103.213 -162.1308
1876.427931 103.305 -161.9713
1890.025301 103.396 -161.8152
1903.721204 103.486 -161.6608
1917.516352 103.576 -161.5072
1931.411466 103.665 -161.3539
1945.407270 103.755 -161.2014
1959.504493 103.844 -161.0512
1973.703870 103.933 -160.9050
1988.006142 104.020 -160.7655
2002.412054 104.104 -160.6356
2016.922357 104.185 -160.5185
2031.537808 104.262 -160.4175
2046.259169 104.333 -160.3353
2061.087206 104.399 -160.2738
2076.022694 104.458 -160.2339
2091.066410 104.510 -160.2156
2106.219139 104.556 -160.2184
2121.481671 104.596 -160.2417
2136.854802 104.632 -160.2846
2152.339333 104.664 -160.3463
2167.936071 104.694 -160.4259
2183.645829 104.723 -160.5232
2199.469427 104.753 -160.6382
2215.407689 104.785 -160.7714
2231.461446 104.820 -160.9235
2247.631536 104.859 -161.0952
2263.918800 104.902 -161.2873
2280.324089 104.949 -161.5011
2296.848258 105.001 -161.7381
2313.492167 105.058 -162.0007
2330.256685 105.119 -162.2919
2347.142685 105.184 -162.6146
2364.151049 105.253 -162.9721
2381.282662 105.324 -163.3675
2398.538418 105.397 -163.8033
2415.919216 105.471 -164.2811
2433.425962 105.545 -164.8016
2451.059570 105.620 -165.3640
2468.820958 105.694 -165.9676
2486.711052 105.768 -166.6110
2504.730786 105.841 -167.2932
2522.881098 105.915 -168.0131
2541.162934 105.988 -168.7700
2559.577248 106.062 -169.5634
2578.125000 106.137 -170.3932
2596.807157 106.213 -171.2594
2615.624692 106.290 -172.1620
2634.578586 106.370 -173.1003
2653.669829 106.451 -174.0733
2672.899414 106.533 -175.0785
2692.268345 106.616 -176.1123
2711.777632 106.700 -177.1698
2731.428290 106.783 -178.2458
2751.221345 106.865 -179.3348
2771.157829 106.944 179.5678
2791.238781 107.019 178.4664
2811.465248 107.089 177.3647
2831.838284 107.153 176.2667
2852.358952 107.208 175.1764
2873.028321 107.253 174.0987
2893.847468 107.286 173.0385
2914.817480 107.307 172.0001
2935.939449 107.315 170.9862
2957.214476 107.310 169.9981
2978.643672 107.292 169.0352
3000.228152 107.262 168.0951
3021.969041 107.219 167.1734
3043.867475 107.164 166.2645
3065.924593 107.097 165.3616
3088.141547 107.019 164.4578
3110.519493 106.930 163.5466
3133.059600 106.830 162.6219
3155.763041 106.720 161.6783
3178.631001 106.599 160.7104
3201.664672 106.468 159.7125
3224.865254 106.328 158.6781
3248.233957 106.177 157.5998
3271.771999 106.015 156.4692
3295.480608 105.842 155.2787
3319.361019 105.654 154.0229
3343.414477 105.448 152.7010
3367.642236 105.221 151.3182
3392.045560 104.968 149.8876
3416.625721 104.685 148.4318
3441.383999 104.366 146.9844
3466.321686 104.007 145.5906
3491.440082 103.605 144.3086
3516.740496 103.157 143.2103
3542.224247 102.663 142.3843
3567.892664 102.125 141.9402
3593.747085 101.547 142.0168
3619.788858 100.936 142.7940
3646.019340 100.307 144.5101
3672.439900 99.679 147.4766
3699.051913 99.081 152.0775
3725.856768 98.550 158.7166
3752.855862 98.131 167.6443
3780.050603 97.869 178.6312
3807.442408 97.797 -169.2921
3835.032705 97.926 -157.5543
3862.822933 98.243 -147.2900
3890.814540 98.719 -138.9295
3919.008986 99.314 -132.3834
3947.407741 99.990 -127.3710
3976.012284 100.715 -123.6062
4004.824108 101.464 -120.8552
4033.844715 102.217 -118.9379
4063.075616 102.963 -117.7149
4092.518337 103.691 -117.0765
4122.174412 104.395 -116.9351
4152.045387 105.072 -117.2203
4182.132820 105.718 -117.8752
4212.438278 106.330 -118.8532
4242.963342 106.907 -120.1160
4273.709604 107.447 -121.6303
4304.678665 107.949 -123.3671
4335.872141 108.410 -125.2991
4367.291658 108.830 -127.4004
4398.938854 109.207 -129.6447
4430.815378 109.539 -132.0051
4462.922893 109.826 -134.4535
4495.263072 110.067 -136.9613
4527.837601 110.263 -139.4992
4560.648179 110.414 -142.0387
4593.696515 110.522 -144.5534
4626.984334 110.590 -147.0201
4660.513370 110.620 -149.4195
4694.285371 110.615 -151.7364
4728.302098 110.578 -153.9586
4762.565324 110.511 -156.0762
4797.076835 110.417 -158.0809
4831.838432 110.299 -159.9655
4866.851925 110.159 -161.7234
4902.119140 109.999 -163.3482
4937.641916 109.822 -164.8331
4973.422105 109.629 -166.1709
5009.461572 109.422 -167.3522
5045.762195 109.204 -168.3665
5082.325868 108.977 -169.2017
5119.154496 108.743 -169.8455
5156.250000 108.505 -170.2870
5193.614313 108.268 -170.5186
5231.249383 108.035 -170.5374
5269.157173 107.810 -170.3462
5307.339658 107.599 -169.9536
5345.798829 107.405 -169.3724
5384.536691 107.231 -168.6182
5423.555263 107.080 -167.7077
5462.856580 106.954 -166.6578
5502.442691 106.857 -165.4864
5542.315659 106.790 -164.2136
5582.477563 106.757 -162.8637
5622.930497 106.759 -161.4654
5663.676569 106.799 -160.0508
5704.717904 106.876 -158.6539
5746.056642 106.991 -157.3077
5787.694937 107.142 -156.0436
5829.634960 107.326 -154.8900
5871.878898 107.540 -153.8714
5914.428953 107.779 -153.0078
5957.287343 108.039 -152.3129
6000.456303 108.313 -151.7946
6043.938083 108.596 -151.4548
6087.734950 108.882 -151.2902
6131.849187 109.167 -151.2947
6176.283094 109.447 -151.4597
6221.038987 109.716 -151.7757
6266.119200 109.972 -152.2314
6311.526083 110.211 -152.8146
6357.262002 110.432 -153.5121
6403.329344 110.631 -154.3098
6449.730508 110.807 -155.1938
6496.467914 110.961 -156.1501
6543.543998 111.090 -157.1645
6590.961215 111.196 -158.2220
6638.722037 111.280 -159.3073
6686.828954 111.342 -160.4051
6735.284473 111.384 -161.5009
6784.091120 111.409 -162.5810
6833.251441 111.419 -163.6329
6882.767998 111.418 -164.6459
6932.643372 111.410 -165.6112
6982.880164 111.396 -166.5233
7033.480992 111.383 -167.3812
7084.448495 111.372 -168.1884
7135.785329 111.368 -168.9538
7187.494171 111.372 -169.6897
7239.577717 111.384 -170.4112
7292.038681 111.404 -171.1334
7344.879799 111.430 -171.8696
7398.103826 111.459 -172.6298
7451.713536 111.488 -173.4192
7505.711724 111.514 -174.2384
7560.101205 111.533 -175.0840
7614.884815 111.542 -175.9497
7670.065409 111.540 -176.8284
7725.645865 111.525 -177.7139
7781.629080 111.497 -178.6016
7838.017972 111.453 -179.4894
7894.815481 111.395 179.6229
7952.024569 111.323 178.7334
8009.648217 111.235 177.8393
8067.689429 111.131 176.9375
8126.151233 111.011 176.0267
8185.036674 110.874 175.1093
8244.348824 110.719 174.1923
8304.090774 110.544 173.2885
8364.265639 110.349 172.4161
8424.876556 110.133 171.5983
8485.926684 109.897 170.8619
8547.419207 109.644 170.2346
8609.357330 109.375 169.7427
8671.744282 109.094 169.4089
8734.583316 108.809 169.2498
8797.877707 108.523 169.2742
8861.630756 108.244 169.4810
8925.845785 107.980 169.8593
8990.526143 107.735 170.3886
9055.675202 107.516 171.0406
9121.296357 107.327 171.7806
9187.393031 107.168 172.5708
9253.968668 107.040 173.3734
9321.026740 106.941 174.1538
9388.570742 106.866 174.8836
9456.604196 106.810 175.5418
9525.130648 106.767 176.1153
9594.153671 106.733 176.5988
9663.676863 106.702 176.9937
9733.703850 106.672 177.3061
9804.238280 106.641 177.5441
9875.283832 106.611 177.7145
9946.844210 106.583 177.8193
10018.923143 106.563 177.8523
10091.524390 106.556 177.7961
10164.651736 106.567 177.6209
10238.308993 106.600 177.2864
10312.500000 106.658 176.7446
10387.228626 106.738 175.9469
10462.498767 106.834 174.8500
10538.314345 106.938 173.4235
10614.679315 107.037 171.6538
10691.597657 107.119 169.5468
10769.073381 107.170 167.1270
10847.110526 107.179 164.4363
10925.713161 107.135 161.5308
11004.885382 107.029 158.4761
11084.631318 106.856 155.3440
11164.955126 106.613 152.2078
11245.860993 106.298 149.1384
11327.353138 105.914 146.2007
11409.435808 105.464 143.4523
11492.113283 104.950 140.9413
11575.389873 104.379 138.7074
11659.269920 103.757 136.7807
11743.757796 103.090 135.1831
11828.857906 102.383 133.9282
11914.574686 101.646 133.0211
12000.912606 100.884 132.4570
12087.876166 100.106 132.2197
12175.469900 99.321 132.2787
12263.698373 98.537 132.5865
12352.566187 97.766 133.0764
12442.077974 97.017 133.6642
12532.238400 96.297 134.2532
12623.052165 95.613 134.7440
12714.524005 94.966 135.0490
12806.658687 94.354 135.1075
12899.461015 93.766 134.8978
12992.935827 93.190 134.4445
13087.087996 92.612 133.8221
13181.922430 92.015 133.1563
13277.444074 91.388 132.6269
13373.657907 90.721 132.4766
13470.568945 90.011 133.0247
13568.182241 89.257 134.6849
13666.502883 88.468 137.9744
13765.535996 87.654 143.4660
13865.286744 86.832 151.5786
13965.760328 86.019 162.1134
14066.961984 85.234 173.8523
14168.896989 84.496 -174.9781
14271.570658 83.819 -165.5826
14374.988342 83.214 -158.1812
14479.155433 82.689 -152.4346
14584.077362 82.249 -147.9008
14689.759598 81.893 -144.2322
14796.207652 81.619 -141.2067
14903.427072 81.419 -138.7004
15011.423448 81.282 -136.6477
15120.202410 81.193 -135.0085
15229.769630 81.136 -133.7458
15340.130819 81.097 -132.8137
15451.291730 81.065 -132.1522
15563.258160 81.031 -131.6865
15676.035944 80.995 -131.3258
15789.630962 80.960 -130.9613
15904.049137 80.938 -130.4611
16019.296433 80.949 -129.6623
16135.378859 81.021 -128.3617
16252.302465 81.184 -126.3090
16370.073348 81.468 -123.2142
16488.697648 81.893 -118.7953
16608.181548 82.461 -112.9118
16728.531278 83.156 -105.7988
16849.753112 83.950 -98.2505
16971.853368 84.809 -91.4432
17094.838414 85.697 -86.3928
17218.714660 86.586 -83.5708
17343.488565 87.453 -82.9588
17469.166632 88.279 -84.2949
17595.755415 89.053 -87.2592
17723.261512 89.765 -91.5585
17851.691571 90.412 -96.9510
17981.052287 90.990 -103.2472
18111.350404 91.498 -110.3035
18242.592715 91.939 -118.0154
18374.786062 92.312 -126.3098
18507.937336 92.620 -135.1370
18642.053479 92.864 -144.4603
18777.141484 93.047 -154.2411
18913.208391 93.169 -164.4166
19050.261296 93.236 -174.8714
19188.307342 93.253 174.5968
19327.353727 93.227 164.3020
19467.407699 93.170 154.6691
19608.476560 93.095 146.1901
19750.567664 93.017 139.3512
19893.688419 92.954 134.5587
20037.846286 92.919 132.0925
