* Measurement data measured by REW V5.31.3
* Source: EXCL: Headset (USB-C to 3.5mm Headphone Jack Adapter), MICROPHONE (Master Volume), 0, volume: 0.260
* Format: 256k Log Swept Sine, 1 sweep at -12.0 dBFS with no timing reference
* Dated: Feb 9, 2025 9:20:45 PM
* REW Settings:
*  C-weighting compensation: Off
*  Target level: 75.0 dB
* Note: ; 
* Measurement: KSC75 L10
* Smoothing: 1/6 octave
* Frequency Step: 96 ppo
* Start Frequency: 20.0 Hz
*
* Freq(Hz) SPL(dB) Phase(degrees)
20.141602 88.897 -7.8873
20.287556 88.906 -8.2178
20.434568 88.917 -8.6587
20.582645 88.926 -9.1945
20.731796 88.930 -9.8075
20.882027 88.929 -10.4784
21.033346 88.921 -11.1877
21.185763 88.905 -11.9164
21.339284 88.881 -12.6470
21.493917 88.852 -13.3645
21.649671 88.819 -14.0568
21.806553 88.785 -14.7156
21.964572 88.753 -15.3357
22.123737 88.725 -15.9162
22.284054 88.703 -16.4587
22.445534 88.690 -16.9677
22.608183 88.685 -17.4487
22.772012 88.691 -17.9083
22.937027 88.707 -18.3525
23.103238 88.732 -18.7863
23.270654 88.765 -19.2137
23.439282 88.806 -19.6372
23.609133 88.855 -20.0580
23.780215 88.911 -20.4767
23.952536 88.975 -20.8935
24.126106 89.046 -21.3089
24.300934 89.124 -21.7239
24.477028 89.211 -22.1403
24.654399 89.306 -22.5608
24.833055 89.408 -22.9885
25.013005 89.517 -23.4266
25.194260 89.632 -23.8778
25.376828 89.751 -24.3442
25.560719 89.872 -24.8262
25.745942 89.994 -25.3230
25.932508 90.114 -25.8324
26.120426 90.232 -26.3509
26.309705 90.345 -26.8744
26.500356 90.454 -27.3985
26.692388 90.556 -27.9194
26.885812 90.652 -28.4339
27.080638 90.742 -28.9398
27.276876 90.826 -29.4360
27.474535 90.904 -29.9224
27.673627 90.979 -30.3996
27.874161 91.052 -30.8685
28.076149 91.124 -31.3305
28.279600 91.200 -31.7870
28.484526 91.282 -32.2397
28.690937 91.373 -32.6907
28.898843 91.478 -33.1424
29.108256 91.598 -33.5978
29.319186 91.736 -34.0605
29.531645 91.893 -34.5342
29.745644 92.068 -35.0227
29.961193 92.259 -35.5287
30.178304 92.462 -36.0540
30.396989 92.672 -36.5986
30.617258 92.884 -37.1605
30.839123 93.092 -37.7359
31.062596 93.290 -38.3195
31.287688 93.474 -38.9052
31.514412 93.638 -39.4870
31.742778 93.779 -40.0592
31.972800 93.895 -40.6176
32.204488 93.982 -41.1597
32.437855 94.041 -41.6845
32.672913 94.072 -42.1926
32.909674 94.075 -42.6860
33.148151 94.052 -43.1671
33.388356 94.006 -43.6392
33.630302 93.941 -44.1054
33.874001 93.859 -44.5687
34.119466 93.766 -45.0322
34.366710 93.665 -45.4985
34.615745 93.562 -45.9701
34.866585 93.459 -46.4486
35.119243 93.362 -46.9356
35.373731 93.273 -47.4313
35.630064 93.196 -47.9358
35.888254 93.132 -48.4480
36.148315 93.085 -48.9668
36.410261 93.055 -49.4906
36.674104 93.045 -50.0182
36.939860 93.056 -50.5487
37.207542 93.089 -51.0814
37.477163 93.145 -51.6162
37.748738 93.223 -52.1530
38.022281 93.324 -52.6915
38.297806 93.448 -53.2312
38.575327 93.593 -53.7713
38.854860 93.759 -54.3104
39.136419 93.944 -54.8473
39.420017 94.147 -55.3808
39.705671 94.368 -55.9097
39.993395 94.603 -56.4334
40.283203 94.852 -56.9519
40.575112 95.114 -57.4653
40.869136 95.387 -57.9744
41.165290 95.669 -58.4798
41.463591 95.959 -58.9825
41.764053 96.254 -59.4832
42.066693 96.554 -59.9823
42.371525 96.855 -60.4801
42.678567 97.156 -60.9764
42.987834 97.453 -61.4715
43.299341 97.746 -61.9654
43.613106 98.031 -62.4592
43.929145 98.306 -62.9544
44.247473 98.570 -63.4530
44.568109 98.820 -63.9572
44.891068 99.055 -64.4689
45.216367 99.273 -64.9895
45.544023 99.474 -65.5192
45.874054 99.658 -66.0578
46.206476 99.823 -66.6040
46.541307 99.971 -67.1565
46.878565 100.101 -67.7138
47.218266 100.215 -68.2748
47.560429 100.314 -68.8388
47.905072 100.398 -69.4050
48.252212 100.468 -69.9732
48.601867 100.527 -70.5432
48.954056 100.575 -71.1145
49.308798 100.614 -71.6867
49.666109 100.645 -72.2593
50.026010 100.672 -72.8319
50.388520 100.695 -73.4041
50.753656 100.717 -73.9758
51.121437 100.739 -74.5471
51.491884 100.763 -75.1179
51.865016 100.789 -75.6884
52.240851 100.819 -76.2583
52.619410 100.852 -76.8275
53.000712 100.889 -77.3955
53.384777 100.929 -77.9623
53.771625 100.972 -78.5276
54.161276 101.018 -79.0918
54.553751 101.064 -79.6551
54.949070 101.111 -80.2182
55.347254 101.157 -80.7814
55.748323 101.202 -81.3455
56.152298 101.245 -81.9106
56.559201 101.285 -82.4768
56.969052 101.323 -83.0439
57.381873 101.358 -83.6117
57.797686 101.389 -84.1801
58.216512 101.418 -84.7495
58.638373 101.443 -85.3207
59.063291 101.466 -85.8954
59.491288 101.486 -86.4752
59.922386 101.503 -87.0614
60.356608 101.518 -87.6548
60.793977 101.531 -88.2557
61.234515 101.543 -88.8635
61.678246 101.555 -89.4773
62.125192 101.566 -90.0961
62.575377 101.579 -90.7185
63.028824 101.592 -91.3435
63.485557 101.608 -91.9700
63.945599 101.625 -92.5971
64.408975 101.645 -93.2244
64.875709 101.667 -93.8515
65.345825 101.693 -94.4781
65.819348 101.722 -95.1043
66.296302 101.755 -95.7302
66.776713 101.791 -96.3562
67.260604 101.830 -96.9825
67.748002 101.872 -97.6096
68.238932 101.918 -98.2379
68.733420 101.965 -98.8674
69.231490 102.015 -99.4987
69.733170 102.066 -100.1319
70.238485 102.119 -100.7675
70.747463 102.173 -101.4060
71.260128 102.228 -102.0475
71.776508 102.284 -102.6922
72.296630 102.340 -103.3401
72.820521 102.397 -103.9911
73.348209 102.455 -104.6450
73.879720 102.512 -105.3019
74.415083 102.570 -105.9618
74.954326 102.627 -106.6249
75.497475 102.683 -107.2913
76.044561 102.739 -107.9610
76.595612 102.793 -108.6339
77.150655 102.845 -109.3097
77.709720 102.895 -109.9880
78.272837 102.942 -110.6685
78.840034 102.985 -111.3510
79.411342 103.025 -112.0351
79.986789 103.061 -112.7205
80.566406 103.093 -113.4072
81.150224 103.121 -114.0949
81.738272 103.146 -114.7836
82.330581 103.168 -115.4731
82.927182 103.187 -116.1634
83.528107 103.207 -116.8545
84.133386 103.228 -117.5462
84.743051 103.252 -118.2385
85.357134 103.283 -118.9312
85.975667 103.324 -119.6241
86.598682 103.378 -120.3170
87.226212 103.447 -121.0098
87.858289 103.536 -121.7021
88.494946 103.647 -122.3941
89.136217 103.780 -123.0858
89.782135 103.936 -123.7773
90.432733 104.114 -124.4687
91.088046 104.311 -125.1603
91.748108 104.523 -125.8521
92.412952 104.746 -126.5437
93.082615 104.974 -127.2348
93.757130 105.202 -127.9249
94.436533 105.424 -128.6135
95.120859 105.637 -129.2999
95.810144 105.836 -129.9838
96.504423 106.019 -130.6647
97.203734 106.183 -131.3423
97.908112 106.329 -132.0163
98.617595 106.456 -132.6867
99.332219 106.566 -133.3534
100.052021 106.662 -134.0164
100.777039 106.744 -134.6760
101.507311 106.815 -135.3321
102.242875 106.878 -135.9848
102.983769 106.934 -136.6341
103.730032 106.984 -137.2802
104.481702 107.030 -137.9233
105.238820 107.070 -138.5635
106.001424 107.103 -139.2013
106.769554 107.130 -139.8370
107.543250 107.147 -140.4709
108.322553 107.154 -141.1032
109.107503 107.149 -141.7341
109.898141 107.131 -142.3634
110.694508 107.098 -142.9910
111.496646 107.051 -143.6167
112.304596 106.991 -144.2402
113.118402 106.917 -144.8613
113.938104 106.834 -145.4798
114.763747 106.741 -146.0953
115.595372 106.642 -146.7077
116.433024 106.538 -147.3167
117.276746 106.433 -147.9222
118.126581 106.327 -148.5238
118.982575 106.222 -149.1213
119.844772 106.119 -149.7144
120.713217 106.018 -150.3026
121.587954 105.919 -150.8856
122.469031 105.822 -151.4632
123.356492 105.725 -152.0350
124.250384 105.628 -152.6010
125.150753 105.528 -153.1613
126.057647 105.424 -153.7159
126.971113 105.316 -154.2646
127.891198 105.201 -154.8075
128.817950 105.079 -155.3442
129.751418 104.950 -155.8745
130.691651 104.814 -156.3981
131.638696 104.672 -156.9149
132.592604 104.525 -157.4247
133.553425 104.376 -157.9274
134.521208 104.227 -158.4229
135.496004 104.080 -158.9112
136.477864 103.941 -159.3921
137.466839 103.812 -159.8653
138.462981 103.696 -160.3308
139.466340 103.596 -160.7885
140.476971 103.514 -161.2384
141.494925 103.451 -161.6805
142.520256 103.406 -162.1151
143.553016 103.377 -162.5422
144.593260 103.362 -162.9623
145.641043 103.357 -163.3758
146.696418 103.359 -163.7830
147.759441 103.362 -164.1844
148.830166 103.364 -164.5802
149.908651 103.362 -164.9708
150.994951 103.354 -165.3562
152.089123 103.338 -165.7365
153.191223 103.315 -166.1117
154.301310 103.285 -166.4814
155.419441 103.250 -166.8455
156.545674 103.210 -167.2037
157.680069 103.168 -167.5557
158.822683 103.125 -167.9012
159.973578 103.083 -168.2400
161.132813 103.042 -168.5717
162.300447 103.005 -168.8959
163.476543 102.971 -169.2123
164.661162 102.940 -169.5208
165.854364 102.914 -169.8211
167.056213 102.892 -170.1133
168.266772 102.875 -170.3976
169.486102 102.863 -170.6747
170.714268 102.856 -170.9452
171.951334 102.855 -171.2105
173.197364 102.860 -171.4718
174.452424 102.871 -171.7310
175.716578 102.887 -171.9900
176.989893 102.908 -172.2510
178.272434 102.933 -172.5162
179.564270 102.961 -172.7880
180.865467 102.990 -173.0684
182.176092 103.019 -173.3590
183.496216 103.047 -173.6611
184.825905 103.071 -173.9752
186.165229 103.091 -174.3012
187.514259 103.107 -174.6383
188.873065 103.119 -174.9851
190.241717 103.126 -175.3401
191.620287 103.130 -175.7010
193.008847 103.130 -176.0656
194.407468 103.127 -176.4318
195.816225 103.122 -176.7973
197.235190 103.114 -177.1602
198.664438 103.104 -177.5187
200.104042 103.093 -177.8712
201.554078 103.079 -178.2164
203.014622 103.062 -178.5532
204.485750 103.042 -178.8808
205.967538 103.019 -179.1984
207.460064 102.993 -179.5054
208.963405 102.963 -179.8015
210.477640 102.930 179.9136
212.002848 102.895 179.6394
213.539108 102.856 179.3758
215.086500 102.815 179.1221
216.645105 102.773 178.8776
218.215005 102.729 178.6415
219.796281 102.684 178.4130
221.389015 102.636 178.1914
222.993292 102.587 177.9759
224.609193 102.535 177.7657
226.236804 102.480 177.5606
227.876209 102.421 177.3600
229.527494 102.357 177.1639
231.190745 102.288 176.9719
232.866048 102.214 176.7838
234.553491 102.135 176.5995
236.253163 102.052 176.4188
237.965150 101.965 176.2414
239.689544 101.875 176.0672
241.426433 101.783 175.8962
243.175909 101.689 175.7284
244.938062 101.596 175.5638
246.712984 101.504 175.4024
248.500768 101.414 175.2443
250.301507 101.326 175.0894
252.115295 101.241 174.9377
253.942226 101.161 174.7892
255.782396 101.085 174.6437
257.635901 101.014 174.5010
259.502837 100.949 174.3614
261.383301 100.889 174.2248
263.277392 100.837 174.0911
265.185209 100.790 173.9604
267.106850 100.751 173.8325
269.042417 100.717 173.7073
270.992009 100.690 173.5845
272.955729 100.668 173.4643
274.933678 100.651 173.3467
276.925961 100.638 173.2321
278.932681 100.629 173.1208
280.953942 100.622 173.0129
282.989850 100.618 172.9087
285.040511 100.617 172.8081
287.106032 100.619 172.7110
289.186521 100.624 172.6170
291.282086 100.634 172.5261
293.392836 100.649 172.4377
295.518881 100.670 172.3518
297.660333 100.697 172.2682
299.817302 100.729 172.1867
301.989902 100.767 172.1074
304.178245 100.808 172.0302
306.382446 100.852 171.9551
308.602620 100.897 171.8820
310.838882 100.940 171.8108
313.091348 100.980 171.7415
315.360137 101.016 171.6742
317.645367 101.046 171.6086
319.947156 101.068 171.5448
322.265625 101.083 171.4828
324.600895 101.088 171.4226
326.953086 101.084 171.3640
329.322323 101.070 171.3071
331.708729 101.046 171.2518
334.112427 101.011 171.1978
336.533543 100.966 171.1451
338.972204 100.911 171.0936
341.428536 100.846 171.0432
343.902668 100.774 170.9938
346.394729 100.694 170.9456
348.904848 100.608 170.8988
351.433156 100.518 170.8535
353.979786 100.427 170.8099
356.544869 100.337 170.7681
359.128540 100.250 170.7284
361.730934 100.169 170.6908
364.352185 100.098 170.6553
366.992431 100.039 170.6220
369.651810 99.994 170.5907
372.330459 99.966 170.5613
375.028519 99.955 170.5338
377.746130 99.962 170.5081
380.483434 99.986 170.4841
383.240574 100.027 170.4619
386.017693 100.081 170.4415
388.814937 100.147 170.4230
391.632450 100.221 170.4063
394.470380 100.301 170.3916
397.328875 100.384 170.3788
400.208084 100.469 170.3680
403.108157 100.553 170.3591
406.029245 100.634 170.3523
408.971500 100.713 170.3474
411.935076 100.789 170.3443
414.920127 100.861 170.3430
417.926810 100.932 170.3433
420.955280 101.000 170.3452
424.005695 101.067 170.3483
427.078215 101.134 170.3528
430.173000 101.201 170.3586
433.290211 101.268 170.3657
436.430010 101.336 170.3742
439.592562 101.403 170.3842
442.778031 101.470 170.3959
445.986583 101.533 170.4093
449.218386 101.593 170.4244
452.473607 101.647 170.4412
455.752418 101.695 170.4596
459.054987 101.734 170.4792
462.381489 101.763 170.5002
465.732096 101.782 170.5222
469.106983 101.791 170.5452
472.506325 101.790 170.5693
475.930301 101.778 170.5945
479.379088 101.758 170.6208
482.852867 101.730 170.6483
486.351817 101.695 170.6768
489.876123 101.654 170.7065
493.425968 101.609 170.7373
497.001536 101.559 170.7692
500.603014 101.505 170.8022
504.230589 101.449 170.8365
507.884452 101.389 170.8718
511.564792 101.326 170.9084
515.271802 101.261 170.9462
519.005673 101.193 170.9852
522.766602 101.124 171.0256
526.554785 101.055 171.0672
530.370418 100.987 171.1102
534.213700 100.923 171.1544
538.084833 100.863 171.1998
541.984018 100.811 171.2463
545.911457 100.767 171.2939
549.867357 100.732 171.3425
553.851922 100.706 171.3923
557.865362 100.689 171.4431
561.907884 100.680 171.4951
565.979700 100.676 171.5484
570.081022 100.676 171.6029
574.212064 100.679 171.6588
578.373042 100.680 171.7161
582.564171 100.680 171.7749
586.785671 100.675 171.8353
591.037762 100.666 171.8973
595.320665 100.650 171.9611
599.634604 100.628 172.0266
603.979804 100.598 172.0939
608.356491 100.562 172.1631
612.764893 100.519 172.2341
617.205240 100.471 172.3068
621.677763 100.418 172.3812
626.182696 100.361 172.4573
630.720274 100.303 172.5351
635.290733 100.245 172.6146
639.894312 100.189 172.6958
644.531250 100.136 172.7788
649.201789 100.089 172.8638
653.906173 100.049 172.9507
658.644647 100.016 173.0397
663.417457 99.990 173.1307
668.224854 99.971 173.2239
673.067086 99.958 173.3192
677.944408 99.949 173.4165
682.857073 99.943 173.5160
687.805336 99.939 173.6175
692.789457 99.934 173.7212
697.809695 99.928 173.8269
702.866312 99.919 173.9345
707.959571 99.906 174.0439
713.089738 99.889 174.1550
718.257080 99.868 174.2676
723.461867 99.842 174.3817
728.704370 99.813 174.4973
733.984862 99.780 174.6143
739.303619 99.743 174.7328
744.660918 99.705 174.8528
750.057038 99.665 174.9743
755.492260 99.624 175.0972
760.966869 99.582 175.2216
766.481148 99.540 175.3472
772.035387 99.496 175.4741
777.629873 99.451 175.6021
783.264900 99.404 175.7313
788.940760 99.354 175.8618
794.657750 99.300 175.9939
800.416168 99.241 176.1277
806.216313 99.177 176.2633
812.058489 99.107 176.4009
817.943000 99.030 176.5403
823.870152 98.947 176.6814
829.840255 98.859 176.8238
835.853619 98.765 176.9673
841.910559 98.667 177.1115
848.011390 98.565 177.2563
854.156430 98.461 177.4014
860.346000 98.356 177.5469
866.580422 98.251 177.6929
872.860020 98.147 177.8394
879.185124 98.045 177.9866
885.556062 97.947 178.1347
891.973166 97.853 178.2838
898.436771 97.765 178.4340
904.947215 97.685 178.5854
911.504835 97.612 178.7382
918.109975 97.548 178.8924
924.762978 97.493 179.0481
931.464192 97.448 179.2055
938.213966 97.414 179.3646
945.012651 97.390 179.5256
951.860602 97.375 179.6887
958.758176 97.369 179.8541
965.705733 97.372 -179.9781
972.703635 97.383 -179.8078
979.752246 97.400 -179.6353
986.851935 97.424 -179.4606
994.003071 97.453 -179.2840
1001.206027 97.487 -179.1054
1008.461179 97.525 -178.9248
1015.768904 97.569 -178.7420
1023.129584 97.619 -178.5568
1030.543603 97.674 -178.3688
1038.011347 97.736 -178.1780
1045.533205 97.805 -177.9842
1053.109569 97.883 -177.7876
1060.740836 97.967 -177.5884
1068.427401 98.060 -177.3871
1076.169666 98.159 -177.1839
1083.968035 98.264 -176.9794
1091.822915 98.373 -176.7738
1099.734713 98.484 -176.5673
1107.703844 98.597 -176.3600
1115.730723 98.707 -176.1522
1123.815768 98.815 -175.9438
1131.959400 98.919 -175.7348
1140.162045 99.017 -175.5253
1148.424129 99.109 -175.3150
1156.746083 99.196 -175.1037
1165.128342 99.277 -174.8910
1173.571343 99.354 -174.6766
1182.075524 99.427 -174.4600
1190.641331 99.499 -174.2409
1199.269209 99.569 -174.0193
1207.959608 99.640 -173.7951
1216.712981 99.713 -173.5688
1225.529785 99.786 -173.3412
1234.410479 99.861 -173.1132
1243.355526 99.937 -172.8862
1252.365393 100.014 -172.6614
1261.440549 100.090 -172.4401
1270.581467 100.165 -172.2231
1279.788624 100.238 -172.0109
1289.062500 100.308 -171.8038
1298.403578 100.375 -171.6014
1307.812346 100.438 -171.4032
1317.289293 100.499 -171.2082
1326.834914 100.555 -171.0156
1336.449707 100.609 -170.8244
1346.134173 100.661 -170.6338
1355.888816 100.709 -170.4428
1365.714145 100.756 -170.2509
1375.610673 100.800 -170.0572
1385.578915 100.842 -169.8613
1395.619391 100.882 -169.6630
1405.732624 100.921 -169.4621
1415.919142 100.958 -169.2589
1426.179476 100.994 -169.0535
1436.514160 101.030 -168.8463
1446.923734 101.066 -168.6376
1457.408740 101.103 -168.4282
1467.969724 101.143 -168.2189
1478.607238 101.185 -168.0105
1489.321836 101.230 -167.8036
1500.114076 101.279 -167.5988
1510.984521 101.331 -167.3959
1521.933737 101.387 -167.1944
1532.962297 101.447 -166.9930
1544.070773 101.509 -166.7902
1555.259747 101.573 -166.5841
1566.529800 101.640 -166.3728
1577.881521 101.708 -166.1544
1589.315501 101.778 -165.9278
1600.832336 101.849 -165.6921
1612.432627 101.921 -165.4476
1624.116978 101.995 -165.1951
1635.886000 102.070 -164.9365
1647.740304 102.147 -164.6745
1659.680509 102.227 -164.4124
1671.707238 102.308 -164.1535
1683.821118 102.392 -163.9008
1696.022780 102.478 -163.6568
1708.312860 102.566 -163.4231
1720.692000 102.656 -163.2006
1733.160843 102.747 -162.9894
1745.720041 102.840 -162.7890
1758.370248 102.933 -162.5981
1771.112124 103.027 -162.4150
1783.946332 103.120 -162.2372
1796.873543 103.213 -162.0623
1809.894429 103.305 -161.8881
1823.009670 103.395 -161.7126
1836.219950 103.484 -161.5345
1849.525956 103.573 -161.3533
1862.928384 103.661 -161.1689
1876.427931 103.750 -160.9821
1890.025301 103.839 -160.7942
1903.721204 103.929 -160.6072
1917.516352 104.021 -160.4239
1931.411466 104.114 -160.2475
1945.407270 104.209 -160.0816
1959.504493 104.303 -159.9297
1973.703870 104.397 -159.7946
1988.006142 104.489 -159.6788
2002.412054 104.578 -159.5842
2016.922357 104.662 -159.5118
2031.537808 104.740 -159.4616
2046.259169 104.811 -159.4325
2061.087206 104.874 -159.4223
2076.022694 104.929 -159.4284
2091.066410 104.977 -159.4484
2106.219139 105.018 -159.4802
2121.481671 105.053 -159.5228
2136.854802 105.083 -159.5759
2152.339333 105.111 -159.6406
2167.936071 105.138 -159.7189
2183.645829 105.166 -159.8141
2199.469427 105.195 -159.9297
2215.407689 105.228 -160.0692
2231.461446 105.265 -160.2359
2247.631536 105.306 -160.4324
2263.918800 105.351 -160.6604
2280.324089 105.400 -160.9206
2296.848258 105.452 -161.2134
2313.492167 105.508 -161.5383
2330.256685 105.566 -161.8947
2347.142685 105.626 -162.2817
2364.151049 105.687 -162.6986
2381.282662 105.750 -163.1451
2398.538418 105.814 -163.6208
2415.919216 105.879 -164.1260
2433.425962 105.945 -164.6618
2451.059570 106.012 -165.2304
2468.820958 106.081 -165.8354
2486.711052 106.152 -166.4813
2504.730786 106.224 -167.1727
2522.881098 106.297 -167.9132
2541.162934 106.371 -168.7050
2559.577248 106.445 -169.5483
2578.125000 106.517 -170.4405
2596.807157 106.589 -171.3772
2615.624692 106.660 -172.3520
2634.578586 106.730 -173.3584
2653.669829 106.800 -174.3902
2672.899414 106.871 -175.4422
2692.268345 106.943 -176.5110
2711.777632 107.017 -177.5953
2731.428290 107.092 -178.6951
2751.221345 107.167 -179.8106
2771.157829 107.240 179.0584
2791.238781 107.309 177.9143
2811.465248 107.373 176.7618
2831.838284 107.428 175.6078
2852.358952 107.474 174.4603
2873.028321 107.509 173.3271
2893.847468 107.531 172.2141
2914.817480 107.542 171.1252
2935.939449 107.540 170.0617
2957.214476 107.524 169.0226
2978.643672 107.496 168.0048
3000.228152 107.454 167.0043
3021.969041 107.398 166.0173
3043.867475 107.328 165.0409
3065.924593 107.244 164.0735
3088.141547 107.146 163.1143
3110.519493 107.035 162.1617
3133.059600 106.913 161.2125
3155.763041 106.779 160.2606
3178.631001 106.637 159.2966
3201.664672 106.487 158.3078
3224.865254 106.328 157.2798
3248.233957 106.161 156.1986
3271.771999 105.984 155.0522
3295.480608 105.794 153.8338
3319.361019 105.587 152.5430
3343.414477 105.360 151.1866
3367.642236 105.108 149.7780
3392.045560 104.829 148.3368
3416.625721 104.518 146.8871
3441.383999 104.174 145.4592
3466.321686 103.792 144.0914
3491.440082 103.370 142.8342
3516.740496 102.906 141.7565
3542.224247 102.398 140.9529
3567.892664 101.846 140.5521
3593.747085 101.252 140.7275
3619.788858 100.626 141.7095
3646.019340 99.981 143.8011
3672.439900 99.341 147.3945
3699.051913 98.740 152.9676
3725.856768 98.221 161.0010
3752.855862 97.832 171.6953
3780.050603 97.618 -175.5240
3807.442408 97.609 -162.2044
3835.032705 97.808 -150.1036
3862.822933 98.193 -140.1822
3890.814540 98.725 -132.5060
3919.008986 99.363 -126.7254
3947.407741 100.069 -122.4372
3976.012284 100.810 -119.3120
4004.824108 101.565 -117.1061
4033.844715 102.318 -115.6422
4063.075616 103.057 -114.7884
4092.518337 103.777 -114.4442
4122.174412 104.471 -114.5320
4152.045387 105.137 -114.9916
4182.132820 105.773 -115.7763
4212.438278 106.376 -116.8499
4242.963342 106.945 -118.1833
4273.709604 107.478 -119.7521
4304.678665 107.973 -121.5334
4335.872141 108.427 -123.5039
4367.291658 108.839 -125.6382
4398.938854 109.207 -127.9090
4430.815378 109.532 -130.2872
4462.922893 109.812 -132.7440
4495.263072 110.048 -135.2512
4527.837601 110.241 -137.7827
4560.648179 110.392 -140.3145
4593.696515 110.502 -142.8252
4626.984334 110.573 -145.2951
4660.513370 110.607 -147.7060
4694.285371 110.605 -150.0414
4728.302098 110.570 -152.2866
4762.565324 110.505 -154.4292
4797.076835 110.412 -156.4599
4831.838432 110.295 -158.3722
4866.851925 110.156 -160.1614
4902.119140 109.998 -161.8239
4937.641916 109.822 -163.3550
4973.422105 109.631 -164.7473
5009.461572 109.424 -165.9906
5045.762195 109.205 -167.0725
5082.325868 108.976 -167.9799
5119.154496 108.738 -168.7013
5156.250000 108.496 -169.2281
5193.614313 108.253 -169.5547
5231.249383 108.013 -169.6784
5269.157173 107.778 -169.5986
5307.339658 107.553 -169.3162
5345.798829 107.340 -168.8334
5384.536691 107.144 -168.1541
5423.555263 106.968 -167.2851
5462.856580 106.815 -166.2366
5502.442691 106.691 -165.0234
5542.315659 106.599 -163.6660
5582.477563 106.544 -162.1917
5622.930497 106.529 -160.6358
5663.676569 106.557 -159.0406
5704.717904 106.629 -157.4547
5746.056642 106.745 -155.9285
5787.694937 106.902 -154.5103
5829.634960 107.096 -153.2412
5871.878898 107.322 -152.1528
5914.428953 107.572 -151.2655
5957.287343 107.840 -150.5890
6000.456303 108.118 -150.1233
6043.938083 108.401 -149.8609
6087.734950 108.682 -149.7877
6131.849187 108.957 -149.8859
6176.283094 109.222 -150.1358
6221.038987 109.473 -150.5181
6266.119200 109.709 -151.0148
6311.526083 109.928 -151.6098
6357.262002 110.127 -152.2890
6403.329344 110.308 -153.0397
6449.730508 110.467 -153.8506
6496.467914 110.607 -154.7111
6543.543998 110.726 -155.6115
6590.961215 110.825 -156.5423
6638.722037 110.905 -157.4938
6686.828954 110.967 -158.4560
6735.284473 111.014 -159.4187
6784.091120 111.047 -160.3721
6833.251441 111.068 -161.3075
6882.767998 111.081 -162.2187
6932.643372 111.089 -163.1020
6982.880164 111.094 -163.9567
7033.480992 111.099 -164.7845
7084.448495 111.107 -165.5888
7135.785329 111.118 -166.3746
7187.494171 111.134 -167.1475
7239.577717 111.154 -167.9136
7292.038681 111.178 -168.6788
7344.879799 111.204 -169.4476
7398.103826 111.232 -170.2233
7451.713536 111.258 -171.0072
7505.711724 111.282 -171.7991
7560.101205 111.300 -172.5978
7614.884815 111.313 -173.4019
7670.065409 111.317 -174.2109
7725.645865 111.313 -175.0259
7781.629080 111.299 -175.8501
7838.017972 111.274 -176.6888
7894.815481 111.237 -177.5487
7952.024569 111.188 -178.4366
8009.648217 111.125 -179.3584
8067.689429 111.046 179.6831
8126.151233 110.948 178.6890
8185.036674 110.831 177.6660
8244.348824 110.692 176.6272
8304.090774 110.529 175.5928
8364.265639 110.341 174.5893
8424.876556 110.127 173.6483
8485.926684 109.889 172.8046
8547.419207 109.629 172.0935
8609.357330 109.350 171.5479
8671.744282 109.057 171.1954
8734.583316 108.758 171.0552
8797.877707 108.459 171.1370
8861.630756 108.169 171.4384
8925.845785 107.898 171.9451
8990.526143 107.651 172.6305
9055.675202 107.437 173.4579
9121.296357 107.259 174.3822
9187.393031 107.122 175.3541
9253.968668 107.023 176.3234
9321.026740 106.960 177.2433
9388.570742 106.929 178.0738
9456.604196 106.922 178.7839
9525.130648 106.933 179.3531
9594.153671 106.955 179.7715
9663.676863 106.981 -179.9618
9733.703850 107.008 -179.8405
9804.238280 107.032 -179.8542
9875.283832 107.054 -179.9922
9946.844210 107.074 179.7533
10018.923143 107.095 179.3831
10091.524390 107.123 178.8884
10164.651736 107.162 178.2498
10238.308993 107.215 177.4384
10312.500000 107.282 176.4189
10387.228626 107.363 175.1553
10462.498767 107.452 173.6164
10538.314345 107.540 171.7817
10614.679315 107.618 169.6452
10691.597657 107.675 167.2169
10769.073381 107.699 164.5228
10847.110526 107.679 161.6030
10925.713161 107.608 158.5092
11004.885382 107.478 155.3004
11084.631318 107.285 152.0395
11164.955126 107.026 148.7889
11245.860993 106.702 145.6070
11327.353138 106.314 142.5447
11409.435808 105.867 139.6435
11492.113283 105.364 136.9338
11575.389873 104.811 134.4344
11659.269920 104.215 132.1509
11743.757796 103.582 130.0765
11828.857906 102.920 128.1909
11914.574686 102.237 126.4603
12000.912606 101.540 124.8391
12087.876166 100.837 123.2712
12175.469900 100.137 121.6930
12263.698373 99.444 120.0380
12352.566187 98.764 118.2404
12442.077974 98.101 116.2408
12532.238400 97.454 113.9890
12623.052165 96.822 111.4472
12714.524005 96.201 108.5918
12806.658687 95.586 105.4129
12899.461015 94.973 101.9124
12992.935827 94.358 98.1002
13087.087996 93.740 93.9830
13181.922430 93.122 89.5440
13277.444074 92.509 84.6804
13373.657907 91.910 78.9414
13470.568945 91.335 69.2492
13568.182241 90.793 -78.0790
13666.502883 90.290 -103.6619
13765.535996 89.827 -110.2238
13865.286744 89.403 -114.9968
13965.760328 89.009 -119.0538
14066.961984 88.640 -122.6212
14168.896989 88.288 -125.7622
14271.570658 87.949 -128.4977
14374.988342 87.621 -130.8418
14479.155433 87.305 -132.8155
14584.077362 87.006 -134.4539
14689.759598 86.728 -135.8080
14796.207652 86.475 -136.9420
14903.427072 86.249 -137.9277
15011.423448 86.051 -138.8370
15120.202410 85.876 -139.7336
15229.769630 85.719 -140.6686
15340.130819 85.574 -141.6768
15451.291730 85.434 -142.7755
15563.258160 85.294 -143.9657
15676.035944 85.150 -145.2313
15789.630962 85.002 -146.5399
15904.049137 84.855 -147.8428
16019.296433 84.721 -149.0734
16135.378859 84.616 -150.1436
16252.302465 84.565 -150.9351
16370.073348 84.596 -151.2804
16488.697648 84.735 -150.9320
16608.181548 85.004 -149.5186
16728.531278 85.409 -146.5085
16849.753112 85.945 -141.2654
16971.853368 86.591 -133.4141
17094.838414 87.320 -123.6705
17218.714660 88.099 -114.2528
17343.488565 88.901 -107.5020
17469.166632 89.700 -104.3073
17595.755415 90.477 -104.3295
17723.261512 91.218 -106.8668
17851.691571 91.914 -111.2934
17981.052287 92.560 -117.1503
18111.350404 93.153 -124.1233
18242.592715 93.693 -132.0063
18374.786062 94.180 -140.6702
18507.937336 94.615 -150.0389
18642.053479 94.998 -160.0655
18777.141484 95.328 -170.7057
18913.208391 95.604 178.1191
19050.261296 95.824 166.5668
19188.307342 95.989 154.9161
19327.353727 96.101 143.5829
19467.407699 96.167 133.0897
19608.476560 96.195 123.9825
19750.567664 96.198 116.7433
19893.688419 96.190 111.7318
20037.846286 96.183 109.1735
