* Measurement data measured by REW V5.31.3
* Source: EXCL: Headset (USB-C to 3.5mm Headphone Jack Adapter), MICROPHONE (Master Volume), 0, volume: 0.260
* Format: 256k Log Swept Sine, 1 sweep at -12.0 dBFS with no timing reference
* Dated: Feb 9, 2025 9:20:19 PM
* REW Settings:
*  C-weighting compensation: Off
*  Target level: 75.0 dB
* Note: ; 
* Measurement: KSC75 L8
* Smoothing: 1/6 octave
* Frequency Step: 96 ppo
* Start Frequency: 20.0 Hz
*
* Freq(Hz) SPL(dB) Phase(degrees)
20.141602 87.440 -0.8720
20.287556 87.458 -1.0185
20.434568 87.480 -1.2147
20.582645 87.505 -1.4555
20.731796 87.528 -1.7365
20.882027 87.548 -2.0543
21.033346 87.563 -2.4067
21.185763 87.571 -2.7926
21.339284 87.572 -3.2115
21.493917 87.566 -3.6626
21.649671 87.553 -4.1447
21.806553 87.534 -4.6551
21.964572 87.510 -5.1899
22.123737 87.483 -5.7437
22.284054 87.455 -6.3099
22.445534 87.428 -6.8816
22.608183 87.403 -7.4513
22.772012 87.385 -8.0125
22.937027 87.374 -8.5595
23.103238 87.373 -9.0884
23.270654 87.385 -9.5973
23.439282 87.410 -10.0859
23.609133 87.450 -10.5557
23.780215 87.505 -11.0098
23.952536 87.575 -11.4518
24.126106 87.659 -11.8858
24.300934 87.756 -12.3158
24.477028 87.864 -12.7453
24.654399 87.982 -13.1774
24.833055 88.106 -13.6146
25.013005 88.235 -14.0592
25.194260 88.367 -14.5132
25.376828 88.499 -14.9790
25.560719 88.631 -15.4589
25.745942 88.760 -15.9557
25.932508 88.886 -16.4724
26.120426 89.007 -17.0115
26.309705 89.124 -17.5751
26.500356 89.236 -18.1640
26.692388 89.342 -18.7779
26.885812 89.443 -19.4143
27.080638 89.539 -20.0695
27.276876 89.631 -20.7378
27.474535 89.720 -21.4128
27.673627 89.807 -22.0871
27.874161 89.894 -22.7538
28.076149 89.985 -23.4066
28.279600 90.081 -24.0405
28.484526 90.185 -24.6523
28.690937 90.300 -25.2405
28.898843 90.428 -25.8054
29.108256 90.570 -26.3487
29.319186 90.727 -26.8731
29.531645 90.898 -27.3817
29.745644 91.082 -27.8776
29.961193 91.275 -28.3636
30.178304 91.475 -28.8423
30.396989 91.677 -29.3153
30.617258 91.878 -29.7843
30.839123 92.072 -30.2505
31.062596 92.257 -30.7151
31.287688 92.427 -31.1795
31.514412 92.580 -31.6450
31.742778 92.712 -32.1129
31.972800 92.821 -32.5845
32.204488 92.904 -33.0609
32.437855 92.962 -33.5429
32.672913 92.992 -34.0310
32.909674 92.996 -34.5253
33.148151 92.975 -35.0258
33.388356 92.932 -35.5322
33.630302 92.868 -36.0443
33.874001 92.788 -36.5616
34.119466 92.695 -37.0838
34.366710 92.594 -37.6102
34.615745 92.490 -38.1402
34.866585 92.387 -38.6731
35.119243 92.290 -39.2082
35.373731 92.204 -39.7450
35.630064 92.132 -40.2833
35.888254 92.077 -40.8231
36.148315 92.044 -41.3644
36.410261 92.032 -41.9071
36.674104 92.042 -42.4511
36.939860 92.076 -42.9957
37.207542 92.132 -43.5400
37.477163 92.210 -44.0830
37.748738 92.309 -44.6236
38.022281 92.429 -45.1613
38.297806 92.568 -45.6960
38.575327 92.726 -46.2282
38.854860 92.903 -46.7586
39.136419 93.097 -47.2883
39.420017 93.308 -47.8177
39.705671 93.536 -48.3476
39.993395 93.779 -48.8779
40.283203 94.036 -49.4091
40.575112 94.306 -49.9414
40.869136 94.588 -50.4758
41.165290 94.880 -51.0136
41.463591 95.179 -51.5563
41.764053 95.485 -52.1049
42.066693 95.793 -52.6600
42.371525 96.103 -53.2215
42.678567 96.411 -53.7883
42.987834 96.715 -54.3588
43.299341 97.013 -54.9311
43.613106 97.302 -55.5035
43.929145 97.581 -56.0745
44.247473 97.847 -56.6427
44.568109 98.100 -57.2076
44.891068 98.337 -57.7687
45.216367 98.558 -58.3264
45.544023 98.763 -58.8813
45.874054 98.950 -59.4347
46.206476 99.121 -59.9879
46.541307 99.275 -60.5420
46.878565 99.413 -61.0977
47.218266 99.535 -61.6556
47.560429 99.642 -62.2157
47.905072 99.735 -62.7777
48.252212 99.815 -63.3417
48.601867 99.884 -63.9077
48.954056 99.942 -64.4758
49.308798 99.990 -65.0462
49.666109 100.031 -65.6190
50.026010 100.066 -66.1942
50.388520 100.096 -66.7717
50.753656 100.123 -67.3518
51.121437 100.150 -67.9345
51.491884 100.176 -68.5203
51.865016 100.205 -69.1094
52.240851 100.236 -69.7019
52.619410 100.271 -70.2978
53.000712 100.310 -70.8972
53.384777 100.353 -71.4999
53.771625 100.399 -72.1056
54.161276 100.447 -72.7140
54.553751 100.497 -73.3251
54.949070 100.547 -73.9385
55.347254 100.597 -74.5544
55.748323 100.644 -75.1726
56.152298 100.690 -75.7936
56.559201 100.732 -76.4173
56.969052 100.772 -77.0435
57.381873 100.807 -77.6718
57.797686 100.839 -78.3014
58.216512 100.868 -78.9309
58.638373 100.894 -79.5590
59.063291 100.918 -80.1847
59.491288 100.941 -80.8070
59.922386 100.962 -81.4258
60.356608 100.982 -82.0416
60.793977 101.003 -82.6554
61.234515 101.023 -83.2685
61.678246 101.044 -83.8823
62.125192 101.065 -84.4980
62.575377 101.087 -85.1166
63.028824 101.110 -85.7388
63.485557 101.134 -86.3653
63.945599 101.159 -86.9960
64.408975 101.187 -87.6310
64.875709 101.217 -88.2699
65.345825 101.249 -88.9121
65.819348 101.284 -89.5572
66.296302 101.323 -90.2046
66.776713 101.364 -90.8541
67.260604 101.408 -91.5054
67.748002 101.455 -92.1587
68.238932 101.504 -92.8139
68.733420 101.556 -93.4712
69.231490 101.609 -94.1309
69.733170 101.665 -94.7931
70.238485 101.721 -95.4579
70.747463 101.780 -96.1253
71.260128 101.839 -96.7953
71.776508 101.899 -97.4680
72.296630 101.961 -98.1432
72.820521 102.023 -98.8209
73.348209 102.085 -99.5013
73.879720 102.149 -100.1843
74.415083 102.212 -100.8701
74.954326 102.275 -101.5589
75.497475 102.337 -102.2509
76.044561 102.399 -102.9462
76.595612 102.459 -103.6451
77.150655 102.517 -104.3475
77.709720 102.572 -105.0536
78.272837 102.624 -105.7633
78.840034 102.673 -106.4763
79.411342 102.717 -107.1923
79.986789 102.758 -107.9111
80.566406 102.794 -108.6323
81.150224 102.827 -109.3556
81.738272 102.856 -110.0809
82.330581 102.882 -110.8079
82.927182 102.905 -111.5362
83.528107 102.929 -112.2657
84.133386 102.953 -112.9963
84.743051 102.981 -113.7276
85.357134 103.016 -114.4596
85.975667 103.060 -115.1922
86.598682 103.118 -115.9253
87.226212 103.191 -116.6588
87.858289 103.283 -117.3925
88.494946 103.397 -118.1263
89.136217 103.533 -118.8600
89.782135 103.692 -119.5934
90.432733 103.872 -120.3264
91.088046 104.072 -121.0587
91.748108 104.286 -121.7903
92.412952 104.511 -122.5208
93.082615 104.741 -123.2501
93.757130 104.972 -123.9778
94.436533 105.196 -124.7037
95.120859 105.411 -125.4273
95.810144 105.612 -126.1485
96.504423 105.796 -126.8667
97.203734 105.963 -127.5820
97.908112 106.110 -128.2942
98.617595 106.240 -129.0034
99.332219 106.352 -129.7094
100.052021 106.449 -130.4124
100.777039 106.533 -131.1121
101.507311 106.606 -131.8084
102.242875 106.671 -132.5013
102.983769 106.729 -133.1904
103.730032 106.780 -133.8757
104.481702 106.827 -134.5568
105.238820 106.868 -135.2336
106.001424 106.903 -135.9058
106.769554 106.931 -136.5735
107.543250 106.950 -137.2368
108.322553 106.957 -137.8959
109.107503 106.953 -138.5511
109.898141 106.935 -139.2026
110.694508 106.903 -139.8506
111.496646 106.857 -140.4952
112.304596 106.798 -141.1367
113.118402 106.725 -141.7749
113.938104 106.642 -142.4100
114.763747 106.550 -143.0417
115.595372 106.452 -143.6700
116.433024 106.348 -144.2943
117.276746 106.243 -144.9144
118.126581 106.138 -145.5296
118.982575 106.033 -146.1395
119.844772 105.931 -146.7434
120.713217 105.830 -147.3412
121.587954 105.733 -147.9326
122.469031 105.637 -148.5177
123.356492 105.542 -149.0970
124.250384 105.446 -149.6706
125.150753 105.348 -150.2388
126.057647 105.246 -150.8018
126.971113 105.140 -151.3597
127.891198 105.027 -151.9124
128.817950 104.908 -152.4599
129.751418 104.782 -153.0022
130.691651 104.650 -153.5392
131.638696 104.511 -154.0711
132.592604 104.369 -154.5978
133.553425 104.224 -155.1192
134.521208 104.080 -155.6350
135.496004 103.939 -156.1451
136.477864 103.806 -156.6494
137.466839 103.683 -157.1475
138.462981 103.573 -157.6396
139.466340 103.480 -158.1254
140.476971 103.405 -158.6051
141.494925 103.348 -159.0787
142.520256 103.309 -159.5462
143.553016 103.286 -160.0080
144.593260 103.277 -160.4645
145.641043 103.277 -160.9160
146.696418 103.282 -161.3629
147.759441 103.290 -161.8055
148.830166 103.296 -162.2439
149.908651 103.297 -162.6782
150.994951 103.292 -163.1081
152.089123 103.279 -163.5336
153.191223 103.259 -163.9544
154.301310 103.231 -164.3703
155.419441 103.197 -164.7810
156.545674 103.159 -165.1862
157.680069 103.119 -165.5856
158.822683 103.078 -165.9792
159.973578 103.037 -166.3666
161.132813 102.998 -166.7479
162.300447 102.962 -167.1229
163.476543 102.928 -167.4915
164.661162 102.899 -167.8534
165.854364 102.873 -168.2086
167.056213 102.851 -168.5569
168.266772 102.834 -168.8981
169.486102 102.821 -169.2326
170.714268 102.813 -169.5604
171.951334 102.811 -169.8823
173.197364 102.813 -170.1991
174.452424 102.821 -170.5120
175.716578 102.835 -170.8226
176.989893 102.852 -171.1325
178.272434 102.874 -171.4436
179.564270 102.897 -171.7575
180.865467 102.922 -172.0760
182.176092 102.947 -172.4007
183.496216 102.969 -172.7328
184.825905 102.990 -173.0730
186.165229 103.006 -173.4220
187.514259 103.018 -173.7795
188.873065 103.027 -174.1450
190.241717 103.031 -174.5174
191.620287 103.032 -174.8954
193.008847 103.029 -175.2771
194.407468 103.024 -175.6608
195.816225 103.017 -176.0444
197.235190 103.008 -176.4259
198.664438 102.996 -176.8035
200.104042 102.982 -177.1753
201.554078 102.966 -177.5399
203.014622 102.947 -177.8959
204.485750 102.926 -178.2423
205.967538 102.901 -178.5782
207.460064 102.872 -178.9030
208.963405 102.840 -179.2161
210.477640 102.805 -179.5174
212.002848 102.766 -179.8069
213.539108 102.725 179.9153
215.086500 102.681 179.6486
216.645105 102.635 179.3925
218.215005 102.588 179.1463
219.796281 102.540 178.9095
221.389015 102.489 178.6812
222.993292 102.437 178.4606
224.609193 102.382 178.2470
226.236804 102.324 178.0397
227.876209 102.262 177.8382
229.527494 102.196 177.6420
231.190745 102.124 177.4507
232.866048 102.048 177.2644
234.553491 101.967 177.0829
236.253163 101.881 176.9062
237.965150 101.792 176.7345
239.689544 101.701 176.5676
241.426433 101.607 176.4055
243.175909 101.513 176.2477
244.938062 101.418 176.0938
246.712984 101.325 175.9434
248.500768 101.234 175.7960
250.301507 101.146 175.6513
252.115295 101.062 175.5092
253.942226 100.981 175.3696
255.782396 100.906 175.2326
257.635901 100.836 175.0981
259.502837 100.772 174.9662
261.383301 100.714 174.8368
263.277392 100.663 174.7098
265.185209 100.618 174.5854
267.106850 100.580 174.4634
269.042417 100.549 174.3439
270.992009 100.524 174.2266
272.955729 100.504 174.1115
274.933678 100.489 173.9981
276.925961 100.479 173.8865
278.932681 100.472 173.7764
280.953942 100.468 173.6677
282.989850 100.466 173.5602
285.040511 100.468 173.4539
287.106032 100.472 173.3487
289.186521 100.480 173.2443
291.282086 100.492 173.1407
293.392836 100.509 173.0381
295.518881 100.532 172.9365
297.660333 100.561 172.8361
299.817302 100.596 172.7372
301.989902 100.636 172.6398
304.178245 100.679 172.5443
306.382446 100.725 172.4506
308.602620 100.771 172.3590
310.838882 100.816 172.2695
313.091348 100.857 172.1821
315.360137 100.894 172.0968
317.645367 100.925 172.0138
319.947156 100.948 171.9328
322.265625 100.964 171.8539
324.600895 100.970 171.7769
326.953086 100.967 171.7016
329.322323 100.953 171.6280
331.708729 100.929 171.5558
334.112427 100.895 171.4852
336.533543 100.851 171.4159
338.972204 100.796 171.3481
341.428536 100.732 171.2817
343.902668 100.659 171.2169
346.394729 100.579 171.1538
348.904848 100.494 171.0925
351.433156 100.404 171.0332
353.979786 100.313 170.9760
356.544869 100.223 170.9208
359.128540 100.136 170.8677
361.730934 100.055 170.8166
364.352185 99.984 170.7675
366.992431 99.925 170.7202
369.651810 99.881 170.6747
372.330459 99.853 170.6308
375.028519 99.842 170.5887
377.746130 99.850 170.5482
380.483434 99.875 170.5093
383.240574 99.916 170.4720
386.017693 99.970 170.4366
388.814937 100.036 170.4029
391.632450 100.111 170.3711
394.470380 100.191 170.3412
397.328875 100.275 170.3133
400.208084 100.360 170.2873
403.108157 100.444 170.2632
406.029245 100.526 170.2408
408.971500 100.605 170.2202
411.935076 100.681 170.2011
414.920127 100.755 170.1834
417.926810 100.825 170.1671
420.955280 100.894 170.1519
424.005695 100.962 170.1380
427.078215 101.030 170.1252
430.173000 101.097 170.1138
433.290211 101.165 170.1039
436.430010 101.234 170.0956
439.592562 101.302 170.0892
442.778031 101.369 170.0845
445.986583 101.433 170.0817
449.218386 101.493 170.0807
452.473607 101.548 170.0813
455.752418 101.595 170.0835
459.054987 101.633 170.0872
462.381489 101.662 170.0922
465.732096 101.681 170.0984
469.106983 101.690 170.1059
472.506325 101.688 170.1146
475.930301 101.676 170.1245
479.379088 101.655 170.1356
482.852867 101.627 170.1482
486.351817 101.591 170.1622
489.876123 101.550 170.1778
493.425968 101.503 170.1948
497.001536 101.453 170.2134
500.603014 101.399 170.2335
504.230589 101.342 170.2549
507.884452 101.281 170.2779
511.564792 101.218 170.3023
515.271802 101.152 170.3281
519.005673 101.084 170.3553
522.766602 101.015 170.3838
526.554785 100.946 170.4137
530.370418 100.878 170.4448
534.213700 100.813 170.4771
538.084833 100.753 170.5104
541.984018 100.700 170.5448
545.911457 100.656 170.5801
549.867357 100.621 170.6165
553.851922 100.595 170.6537
557.865362 100.578 170.6920
561.907884 100.568 170.7314
565.979700 100.564 170.7720
570.081022 100.565 170.8139
574.212064 100.567 170.8572
578.373042 100.568 170.9022
582.564171 100.568 170.9490
586.785671 100.563 170.9978
591.037762 100.554 171.0487
595.320665 100.538 171.1016
599.634604 100.516 171.1567
603.979804 100.486 171.2138
608.356491 100.450 171.2729
612.764893 100.407 171.3340
617.205240 100.358 171.3969
621.677763 100.304 171.4616
626.182696 100.248 171.5281
630.720274 100.189 171.5963
635.290733 100.131 171.6663
639.894312 100.075 171.7380
644.531250 100.022 171.8116
649.201789 99.975 171.8870
653.906173 99.935 171.9643
658.644647 99.901 172.0435
663.417457 99.876 172.1246
668.224854 99.857 172.2078
673.067086 99.844 172.2929
677.944408 99.835 172.3800
682.857073 99.830 172.4692
687.805336 99.825 172.5602
692.789457 99.821 172.6533
697.809695 99.815 172.7483
702.866312 99.806 172.8452
707.959571 99.794 172.9438
713.089738 99.777 173.0441
718.257080 99.756 173.1459
723.461867 99.731 173.2493
728.704370 99.702 173.3539
733.984862 99.669 173.4601
739.303619 99.633 173.5677
744.660918 99.594 173.6769
750.057038 99.555 173.7876
755.492260 99.514 173.8999
760.966869 99.472 174.0137
766.481148 99.430 174.1289
772.035387 99.387 174.2455
777.629873 99.342 174.3632
783.264900 99.295 174.4819
788.940760 99.245 174.6017
794.657750 99.192 174.7225
800.416168 99.133 174.8445
806.216313 99.069 174.9677
812.058489 98.999 175.0920
817.943000 98.923 175.2175
823.870152 98.840 175.3441
829.840255 98.752 175.4715
835.853619 98.659 175.5995
841.910559 98.561 175.7281
848.011390 98.460 175.8570
854.156430 98.356 175.9864
860.346000 98.251 176.1163
866.580422 98.146 176.2468
872.860020 98.043 176.3781
879.185124 97.941 176.5104
885.556062 97.843 176.6439
891.973166 97.750 176.7785
898.436771 97.662 176.9144
904.947215 97.581 177.0516
911.504835 97.509 177.1902
918.109975 97.445 177.3303
924.762978 97.390 177.4717
931.464192 97.346 177.6146
938.213966 97.312 177.7591
945.012651 97.288 177.9053
951.860602 97.273 178.0534
958.758176 97.268 178.2036
965.705733 97.271 178.3560
972.703635 97.282 178.5107
979.752246 97.299 178.6676
986.851935 97.323 178.8265
994.003071 97.352 178.9871
1001.206027 97.387 179.1495
1008.461179 97.426 179.3135
1015.768904 97.470 179.4794
1023.129584 97.520 179.6472
1030.543603 97.576 179.8174
1038.011347 97.638 179.9902
1045.533205 97.707 -179.8343
1053.109569 97.785 -179.6559
1060.740836 97.870 -179.4750
1068.427401 97.962 -179.2917
1076.169666 98.061 -179.1064
1083.968035 98.166 -178.9194
1091.822915 98.275 -178.7311
1099.734713 98.386 -178.5416
1107.703844 98.498 -178.3512
1115.730723 98.608 -178.1597
1123.815768 98.716 -177.9672
1131.959400 98.819 -177.7737
1140.162045 98.917 -177.5791
1148.424129 99.008 -177.3832
1156.746083 99.095 -177.1859
1165.128342 99.176 -176.9869
1173.571343 99.252 -176.7860
1182.075524 99.326 -176.5831
1190.641331 99.397 -176.3780
1199.269209 99.468 -176.1706
1207.959608 99.539 -175.9611
1216.712981 99.612 -175.7500
1225.529785 99.685 -175.5379
1234.410479 99.761 -175.3258
1243.355526 99.837 -175.1150
1252.365393 99.913 -174.9066
1261.440549 99.989 -174.7018
1270.581467 100.064 -174.5014
1279.788624 100.136 -174.3059
1289.062500 100.206 -174.1153
1298.403578 100.273 -173.9294
1307.812346 100.336 -173.7472
1317.289293 100.395 -173.5678
1326.834914 100.452 -173.3901
1336.449707 100.505 -173.2131
1346.134173 100.556 -173.0359
1355.888816 100.604 -172.8577
1365.714145 100.650 -172.6778
1375.610673 100.694 -172.4958
1385.578915 100.736 -172.3111
1395.619391 100.776 -172.1234
1405.732624 100.814 -171.9329
1415.919142 100.851 -171.7397
1426.179476 100.888 -171.5441
1436.514160 100.924 -171.3468
1446.923734 100.960 -171.1483
1457.408740 100.998 -170.9496
1467.969724 101.038 -170.7516
1478.607238 101.081 -170.5554
1489.321836 101.127 -170.3617
1500.114076 101.176 -170.1709
1510.984521 101.229 -169.9830
1521.933737 101.286 -169.7974
1532.962297 101.345 -169.6128
1544.070773 101.408 -169.4276
1555.259747 101.473 -169.2397
1566.529800 101.539 -169.0472
1577.881521 101.607 -168.8479
1589.315501 101.677 -168.6402
1600.832336 101.747 -168.4231
1612.432627 101.819 -168.1965
1624.116978 101.892 -167.9609
1635.886000 101.966 -167.7179
1647.740304 102.042 -167.4702
1659.680509 102.121 -167.2208
1671.707238 102.201 -166.9732
1683.821118 102.284 -166.7306
1696.022780 102.370 -166.4959
1708.312860 102.458 -166.2709
1720.692000 102.547 -166.0567
1733.160843 102.639 -165.8536
1745.720041 102.732 -165.6611
1758.370248 102.826 -165.4784
1771.112124 102.920 -165.3036
1783.946332 103.014 -165.1350
1796.873543 103.108 -164.9701
1809.894429 103.200 -164.8070
1823.009670 103.292 -164.6440
1836.219950 103.382 -164.4800
1849.525956 103.472 -164.3144
1862.928384 103.562 -164.1475
1876.427931 103.651 -163.9798
1890.025301 103.741 -163.8123
1903.721204 103.832 -163.6463
1917.516352 103.924 -163.4837
1931.411466 104.017 -163.3271
1945.407270 104.112 -163.1794
1959.504493 104.206 -163.0434
1973.703870 104.300 -162.9220
1988.006142 104.392 -162.8177
2002.412054 104.481 -162.7330
2016.922357 104.565 -162.6699
2031.537808 104.645 -162.6296
2046.259169 104.717 -162.6122
2061.087206 104.783 -162.6169
2076.022694 104.840 -162.6418
2091.066410 104.890 -162.6848
2106.219139 104.933 -162.7439
2121.481671 104.970 -162.8173
2136.854802 105.002 -162.9043
2152.339333 105.031 -163.0046
2167.936071 105.058 -163.1188
2183.645829 105.085 -163.2487
2199.469427 105.114 -163.3964
2215.407689 105.145 -163.5650
2231.461446 105.180 -163.7573
2247.631536 105.220 -163.9763
2263.918800 105.264 -164.2247
2280.324089 105.312 -164.5047
2296.848258 105.364 -164.8176
2313.492167 105.419 -165.1643
2330.256685 105.476 -165.5443
2347.142685 105.535 -165.9567
2364.151049 105.596 -166.3998
2381.282662 105.657 -166.8721
2398.538418 105.718 -167.3726
2415.919216 105.781 -167.9008
2433.425962 105.844 -168.4574
2451.059570 105.909 -169.0444
2468.820958 105.975 -169.6655
2486.711052 106.043 -170.3257
2504.730786 106.113 -171.0298
2522.881098 106.184 -171.7824
2541.162934 106.256 -172.5862
2559.577248 106.328 -173.4416
2578.125000 106.399 -174.3468
2596.807157 106.468 -175.2971
2615.624692 106.537 -176.2860
2634.578586 106.605 -177.3065
2653.669829 106.672 -178.3515
2672.899414 106.739 -179.4154
2692.268345 106.808 179.5060
2711.777632 106.877 178.4153
2731.428290 106.947 177.3139
2751.221345 107.017 176.2026
2771.157829 107.086 175.0829
2791.238781 107.151 173.9575
2811.465248 107.211 172.8305
2831.838284 107.265 171.7076
2852.358952 107.310 170.5948
2873.028321 107.345 169.4978
2893.847468 107.370 168.4205
2914.817480 107.384 167.3647
2935.939449 107.387 166.3301
2957.214476 107.377 165.3144
2978.643672 107.355 164.3138
3000.228152 107.320 163.3239
3021.969041 107.272 162.3401
3043.867475 107.210 161.3594
3065.924593 107.134 160.3801
3088.141547 107.044 159.4012
3110.519493 106.942 158.4211
3133.059600 106.827 157.4357
3155.763041 106.703 156.4375
3178.631001 106.569 155.4156
3201.664672 106.426 154.3567
3224.865254 106.273 153.2476
3248.233957 106.110 152.0772
3271.771999 105.934 150.8389
3295.480608 105.741 149.5322
3319.361019 105.529 148.1626
3343.414477 105.295 146.7408
3367.642236 105.035 145.2813
3392.045560 104.748 143.8010
3416.625721 104.430 142.3200
3441.383999 104.080 140.8640
3466.321686 103.693 139.4687
3491.440082 103.266 138.1855
3516.740496 102.797 137.0877
3542.224247 102.283 136.2779
3567.892664 101.724 135.8961
3593.747085 101.124 136.1295
3619.788858 100.491 137.2262
3646.019340 99.842 139.5139
3672.439900 99.202 143.4183
3699.051913 98.607 149.4545
3725.856768 98.101 158.1115
3752.855862 97.734 169.4916
3780.050603 97.551 -177.2365
3807.442408 97.575 -163.8642
3835.032705 97.805 -152.1147
3862.822933 98.216 -142.7186
3890.814540 98.768 -135.5607
3919.008986 99.418 -130.2204
3947.407741 100.129 -126.2856
3976.012284 100.872 -123.4387
4004.824108 101.626 -121.4516
4033.844715 102.375 -120.1609
4063.075616 103.110 -119.4463
4092.518337 103.824 -119.2164
4122.174412 104.513 -119.4012
4152.045387 105.174 -119.9463
4182.132820 105.803 -120.8092
4212.438278 106.400 -121.9565
4242.963342 106.962 -123.3608
4273.709604 107.487 -124.9978
4304.678665 107.973 -126.8443
4335.872141 108.418 -128.8761
4367.291658 108.820 -131.0673
4398.938854 109.179 -133.3899
4430.815378 109.493 -135.8147
4462.922893 109.762 -138.3127
4495.263072 109.987 -140.8559
4527.837601 110.168 -143.4179
4560.648179 110.307 -145.9746
4593.696515 110.404 -148.5038
4626.984334 110.462 -150.9847
4660.513370 110.481 -153.3982
4694.285371 110.465 -155.7269
4728.302098 110.416 -157.9560
4762.565324 110.336 -160.0735
4797.076835 110.231 -162.0706
4831.838432 110.101 -163.9415
4866.851925 109.951 -165.6825
4902.119140 109.783 -167.2907
4937.641916 109.598 -168.7621
4973.422105 109.398 -170.0905
5009.461572 109.185 -171.2665
5045.762195 108.961 -172.2789
5082.325868 108.728 -173.1155
5119.154496 108.488 -173.7656
5156.250000 108.244 -174.2206
5193.614313 108.001 -174.4752
5231.249383 107.761 -174.5265
5269.157173 107.528 -174.3737
5307.339658 107.306 -174.0179
5345.798829 107.097 -173.4625
5384.536691 106.907 -172.7137
5423.555263 106.738 -171.7815
5462.856580 106.595 -170.6804
5502.442691 106.481 -169.4291
5542.315659 106.401 -168.0515
5582.477563 106.357 -166.5770
5622.930497 106.354 -165.0408
5663.676569 106.392 -163.4839
5704.717904 106.474 -161.9515
5746.056642 106.597 -160.4898
5787.694937 106.760 -159.1424
5829.634960 106.958 -157.9465
5871.878898 107.185 -156.9309
5914.428953 107.436 -156.1147
5957.287343 107.704 -155.5078
6000.456303 107.981 -155.1121
6043.938083 108.262 -154.9220
6087.734950 108.539 -154.9257
6131.849187 108.809 -155.1066
6176.283094 109.067 -155.4449
6221.038987 109.308 -155.9196
6266.119200 109.531 -156.5097
6311.526083 109.732 -157.1946
6357.262002 109.912 -157.9545
6403.329344 110.068 -158.7707
6449.730508 110.201 -159.6258
6496.467914 110.311 -160.5037
6543.543998 110.399 -161.3908
6590.961215 110.468 -162.2754
6638.722037 110.518 -163.1478
6686.828954 110.552 -163.9995
6735.284473 110.572 -164.8232
6784.091120 110.582 -165.6128
6833.251441 110.584 -166.3639
6882.767998 110.582 -167.0748
6932.643372 110.579 -167.7459
6982.880164 110.579 -168.3807
7033.480992 110.583 -168.9852
7084.448495 110.594 -169.5683
7135.785329 110.614 -170.1417
7187.494171 110.643 -170.7185
7239.577717 110.681 -171.3117
7292.038681 110.725 -171.9325
7344.879799 110.773 -172.5889
7398.103826 110.822 -173.2845
7451.713536 110.869 -174.0191
7505.711724 110.911 -174.7887
7560.101205 110.945 -175.5867
7614.884815 110.969 -176.4059
7670.065409 110.982 -177.2400
7725.645865 110.984 -178.0850
7781.629080 110.972 -178.9400
7838.017972 110.948 -179.8071
7894.815481 110.911 179.3090
7952.024569 110.859 178.4020
8009.648217 110.793 177.4658
8067.689429 110.710 176.4958
8126.151233 110.610 175.4911
8185.036674 110.490 174.4556
8244.348824 110.348 173.4004
8304.090774 110.181 172.3436
8364.265639 109.988 171.3115
8424.876556 109.769 170.3373
8485.926684 109.522 169.4593
8547.419207 109.250 168.7183
8609.357330 108.955 168.1536
8671.744282 108.644 167.7988
8734.583316 108.323 167.6786
8797.877707 108.001 167.8052
8861.630756 107.685 168.1762
8925.845785 107.386 168.7745
8990.526143 107.111 169.5691
9055.675202 106.869 170.5179
9121.296357 106.663 171.5718
9187.393031 106.497 172.6792
9253.968668 106.369 173.7901
9321.026740 106.277 174.8606
9388.570742 106.216 175.8552
9456.604196 106.180 176.7488
9525.130648 106.161 177.5262
9594.153671 106.154 178.1818
9663.676863 106.154 178.7173
9733.703850 106.158 179.1394
9804.238280 106.164 179.4563
9875.283832 106.172 179.6746
9946.844210 106.186 179.7958
10018.923143 106.210 179.8125
10091.524390 106.249 179.7063
10164.651736 106.308 179.4468
10238.308993 106.390 178.9936
10312.500000 106.496 178.3000
10387.228626 106.624 177.3187
10462.498767 106.765 176.0085
10538.314345 106.911 174.3408
10614.679315 107.049 172.3031
10691.597657 107.164 169.9015
10769.073381 107.245 167.1606
10847.110526 107.277 164.1223
10925.713161 107.251 160.8424
11004.885382 107.157 157.3881
11084.631318 106.989 153.8329
11164.955126 106.744 150.2528
11245.860993 106.420 146.7220
11327.353138 106.019 143.3088
11409.435808 105.542 140.0737
11492.113283 104.995 137.0681
11575.389873 104.381 134.3346
11659.269920 103.706 131.9070
11743.757796 102.975 129.8125
11828.857906 102.193 128.0722
11914.574686 101.367 126.7029
12000.912606 100.501 125.7182
12087.876166 99.602 125.1308
12175.469900 98.674 124.9532
12263.698373 97.726 125.2014
12352.566187 96.766 125.8992
12442.077974 95.805 127.0884
12532.238400 94.859 128.8498
12623.052165 93.948 131.3439
12714.524005 93.099 134.8886
12806.658687 92.347 140.0998
12899.461015 91.730 148.1117
12992.935827 91.285 160.6707
13087.087996 91.034 178.8828
13181.922430 90.979 -160.6133
13277.444074 91.094 -144.4498
13373.657907 91.333 -134.8043
13470.568945 91.644 -130.0980
13568.182241 91.979 -128.5333
13666.502883 92.299 -128.9270
13765.535996 92.577 -130.5586
13865.286744 92.796 -132.9790
13965.760328 92.945 -135.8944
14066.961984 93.020 -139.1040
14168.896989 93.022 -142.4665
14271.570658 92.952 -145.8806
14374.988342 92.815 -149.2744
14479.155433 92.617 -152.5978
14584.077362 92.363 -155.8195
14689.759598 92.060 -158.9231
14796.207652 91.714 -161.9055
14903.427072 91.331 -164.7733
15011.423448 90.915 -167.5399
15120.202410 90.470 -170.2210
15229.769630 89.997 -172.8309
15340.130819 89.497 -175.3798
15451.291730 88.971 -177.8711
15563.258160 88.419 179.7002
15676.035944 87.842 177.3489
15789.630962 87.242 175.1032
15904.049137 86.626 173.0086
16019.296433 86.007 171.1378
16135.378859 85.403 169.6086
16252.302465 84.848 168.6212
16370.073348 84.385 168.5417
16488.697648 84.068 170.1058
16608.181548 83.947 174.9502
16728.531278 84.053 -173.0535
16849.753112 84.383 -147.3585
16971.853368 84.901 -115.0916
17094.838414 85.550 -96.4462
17218.714660 86.275 -89.5539
17343.488565 87.027 -88.4790
17469.166632 87.771 -90.4588
17595.755415 88.483 -94.2866
17723.261512 89.147 -99.3727
17851.691571 89.757 -105.3922
17981.052287 90.310 -112.1481
18111.350404 90.805 -119.5151
18242.592715 91.245 -127.4143
18374.786062 91.633 -135.7995
18507.937336 91.973 -144.6464
18642.053479 92.266 -153.9400
18777.141484 92.513 -163.6578
18913.208391 92.715 -173.7448
19050.261296 92.872 175.9178
19188.307342 92.985 165.5433
19327.353727 93.056 155.4566
19467.407699 93.092 146.0804
19608.476560 93.099 137.8831
19750.567664 93.089 131.3106
19893.688419 93.074 126.7247
20037.846286 93.064 124.3710
