* Measurement data measured by REW V5.31.3
* Source: EXCL: Headset (USB-C to 3.5mm Headphone Jack Adapter), MICROPHONE (Master Volume), 0, volume: 0.260
* Format: 256k Log Swept Sine, 1 sweep at -12.0 dBFS with no timing reference
* Dated: Feb 9, 2025 9:17:54 PM
* REW Settings:
*  C-weighting compensation: Off
*  Target level: 75.0 dB
* Note: ; 
* Measurement: KSC75 L3
* Smoothing: 1/6 octave
* Frequency Step: 96 ppo
* Start Frequency: 20.0 Hz
*
* Freq(Hz) SPL(dB) Phase(degrees)
20.141602 85.501 3.9686
20.287556 85.513 3.7257
20.434568 85.528 3.4074
20.582645 85.541 3.0311
20.731796 85.552 2.6148
20.882027 85.557 2.1753
21.033346 85.555 1.7266
21.185763 85.545 1.2786
21.339284 85.529 0.8375
21.493917 85.507 0.4048
21.649671 85.481 -0.0211
21.806553 85.453 -0.4449
21.964572 85.425 -0.8731
22.123737 85.400 -1.3133
22.284054 85.379 -1.7725
22.445534 85.365 -2.2571
22.608183 85.358 -2.7715
22.772012 85.359 -3.3182
22.937027 85.370 -3.8973
23.103238 85.390 -4.5071
23.270654 85.420 -5.1436
23.439282 85.460 -5.8018
23.609133 85.509 -6.4754
23.780215 85.569 -7.1576
23.952536 85.639 -7.8416
24.126106 85.718 -8.5206
24.300934 85.806 -9.1887
24.477028 85.903 -9.8406
24.654399 86.006 -10.4718
24.833055 86.116 -11.0795
25.013005 86.231 -11.6618
25.194260 86.350 -12.2184
25.376828 86.471 -12.7506
25.560719 86.592 -13.2609
25.745942 86.713 -13.7530
25.932508 86.833 -14.2316
26.120426 86.950 -14.7018
26.309705 87.064 -15.1684
26.500356 87.174 -15.6360
26.692388 87.280 -16.1079
26.885812 87.381 -16.5863
27.080638 87.479 -17.0719
27.276876 87.572 -17.5639
27.474535 87.664 -18.0609
27.673627 87.756 -18.5607
27.874161 87.850 -19.0611
28.076149 87.948 -19.5604
28.279600 88.054 -20.0574
28.484526 88.170 -20.5519
28.690937 88.298 -21.0443
28.898843 88.441 -21.5354
29.108256 88.598 -22.0260
29.319186 88.770 -22.5165
29.531645 88.956 -23.0070
29.745644 89.152 -23.4967
29.961193 89.358 -23.9847
30.178304 89.567 -24.4698
30.396989 89.778 -24.9516
30.617258 89.985 -25.4301
30.839123 90.184 -25.9065
31.062596 90.372 -26.3831
31.287688 90.544 -26.8627
31.514412 90.696 -27.3483
31.742778 90.827 -27.8425
31.972800 90.933 -28.3467
32.204488 91.012 -28.8608
32.437855 91.064 -29.3831
32.672913 91.088 -29.9106
32.909674 91.086 -30.4395
33.148151 91.060 -30.9664
33.388356 91.011 -31.4884
33.630302 90.944 -32.0042
33.874001 90.862 -32.5144
34.119466 90.769 -33.0212
34.366710 90.670 -33.5282
34.615745 90.569 -34.0394
34.866585 90.470 -34.5587
35.119243 90.377 -35.0893
35.373731 90.292 -35.6330
35.630064 90.221 -36.1901
35.888254 90.165 -36.7600
36.148315 90.128 -37.3407
36.410261 90.112 -37.9301
36.674104 90.119 -38.5257
36.939860 90.150 -39.1256
37.207542 90.206 -39.7279
37.477163 90.286 -40.3315
37.748738 90.391 -40.9356
38.022281 90.519 -41.5395
38.297806 90.668 -42.1426
38.575327 90.837 -42.7443
38.854860 91.025 -43.3438
39.136419 91.229 -43.9401
39.420017 91.448 -44.5325
39.705671 91.682 -45.1200
39.993395 91.928 -45.7022
40.283203 92.187 -46.2786
40.575112 92.456 -46.8491
40.869136 92.735 -47.4139
41.165290 93.023 -47.9736
41.463591 93.318 -48.5291
41.764053 93.618 -49.0818
42.066693 93.922 -49.6334
42.371525 94.227 -50.1859
42.678567 94.531 -50.7411
42.987834 94.833 -51.3008
43.299341 95.130 -51.8660
43.613106 95.420 -52.4374
43.929145 95.701 -53.0149
44.247473 95.971 -53.5981
44.568109 96.230 -54.1860
44.891068 96.475 -54.7776
45.216367 96.705 -55.3715
45.544023 96.920 -55.9662
45.874054 97.119 -56.5600
46.206476 97.301 -57.1516
46.541307 97.466 -57.7402
46.878565 97.614 -58.3259
47.218266 97.745 -58.9102
47.560429 97.859 -59.4951
47.905072 97.957 -60.0832
48.252212 98.039 -60.6765
48.601867 98.108 -61.2756
48.954056 98.163 -61.8799
49.308798 98.208 -62.4877
49.666109 98.243 -63.0967
50.026010 98.273 -63.7048
50.388520 98.298 -64.3107
50.753656 98.321 -64.9138
51.121437 98.344 -65.5141
51.491884 98.368 -66.1120
51.865016 98.395 -66.7078
52.240851 98.425 -67.3018
52.619410 98.459 -67.8940
53.000712 98.495 -68.4846
53.384777 98.535 -69.0737
53.771625 98.578 -69.6616
54.161276 98.623 -70.2485
54.553751 98.670 -70.8347
54.949070 98.718 -71.4201
55.347254 98.765 -72.0048
55.748323 98.811 -72.5883
56.152298 98.856 -73.1702
56.559201 98.899 -73.7500
56.969052 98.939 -74.3275
57.381873 98.976 -74.9032
57.797686 99.010 -75.4783
58.216512 99.042 -76.0545
58.638373 99.071 -76.6346
59.063291 99.098 -77.2214
59.491288 99.123 -77.8179
59.922386 99.147 -78.4264
60.356608 99.171 -79.0478
60.793977 99.194 -79.6818
61.234515 99.217 -80.3265
61.678246 99.240 -80.9791
62.125192 99.263 -81.6367
62.575377 99.287 -82.2967
63.028824 99.312 -82.9572
63.485557 99.339 -83.6170
63.945599 99.368 -84.2758
64.408975 99.398 -84.9337
64.875709 99.432 -85.5911
65.345825 99.468 -86.2482
65.819348 99.506 -86.9054
66.296302 99.548 -87.5628
66.776713 99.592 -88.2207
67.260604 99.639 -88.8794
67.748002 99.688 -89.5395
68.238932 99.740 -90.2018
68.733420 99.794 -90.8668
69.231490 99.850 -91.5351
69.733170 99.907 -92.2070
70.238485 99.967 -92.8825
70.747463 100.027 -93.5618
71.260128 100.089 -94.2447
71.776508 100.152 -94.9314
72.296630 100.215 -95.6219
72.820521 100.279 -96.3164
73.348209 100.344 -97.0152
73.879720 100.409 -97.7183
74.415083 100.473 -98.4257
74.954326 100.538 -99.1373
75.497475 100.601 -99.8530
76.044561 100.664 -100.5724
76.595612 100.726 -101.2955
77.150655 100.785 -102.0217
77.709720 100.842 -102.7507
78.272837 100.895 -103.4819
78.840034 100.946 -104.2148
79.411342 100.992 -104.9491
79.986789 101.034 -105.6844
80.566406 101.072 -106.4207
81.150224 101.106 -107.1580
81.738272 101.136 -107.8963
82.330581 101.163 -108.6358
82.927182 101.188 -109.3765
83.528107 101.212 -110.1186
84.133386 101.238 -110.8622
84.743051 101.267 -111.6074
85.357134 101.303 -112.3540
85.975667 101.349 -113.1022
86.598682 101.408 -113.8517
87.226212 101.483 -114.6025
87.858289 101.576 -115.3544
88.494946 101.692 -116.1072
89.136217 101.829 -116.8607
89.782135 101.990 -117.6148
90.432733 102.172 -118.3690
91.088046 102.373 -119.1232
91.748108 102.589 -119.8771
92.412952 102.815 -120.6301
93.082615 103.046 -121.3820
93.757130 103.277 -122.1322
94.436533 103.503 -122.8804
95.120859 103.719 -123.6260
95.810144 103.921 -124.3688
96.504423 104.106 -125.1083
97.203734 104.273 -125.8446
97.908112 104.422 -126.5775
98.617595 104.552 -127.3070
99.332219 104.664 -128.0333
100.052021 104.762 -128.7566
100.777039 104.846 -129.4771
101.507311 104.919 -130.1950
102.242875 104.984 -130.9102
102.983769 105.042 -131.6228
103.730032 105.093 -132.3325
104.481702 105.140 -133.0393
105.238820 105.181 -133.7433
106.001424 105.216 -134.4446
106.769554 105.243 -135.1436
107.543250 105.262 -135.8408
108.322553 105.271 -136.5364
109.107503 105.267 -137.2307
109.898141 105.250 -137.9237
110.694508 105.219 -138.6152
111.496646 105.173 -139.3052
112.304596 105.114 -139.9932
113.118402 105.042 -140.6790
113.938104 104.959 -141.3621
114.763747 104.867 -142.0420
115.595372 104.769 -142.7182
116.433024 104.665 -143.3900
117.276746 104.559 -144.0572
118.126581 104.452 -144.7194
118.982575 104.345 -145.3765
119.844772 104.240 -146.0283
120.713217 104.137 -146.6746
121.587954 104.035 -147.3152
122.469031 103.934 -147.9496
123.356492 103.834 -148.5774
124.250384 103.732 -149.1977
125.150753 103.627 -149.8101
126.057647 103.518 -150.4137
126.971113 103.404 -151.0081
127.891198 103.283 -151.5926
128.817950 103.155 -152.1670
129.751418 103.019 -152.7310
130.691651 102.877 -153.2847
131.638696 102.728 -153.8279
132.592604 102.574 -154.3607
133.553425 102.418 -154.8831
134.521208 102.262 -155.3949
135.496004 102.110 -155.8961
136.477864 101.965 -156.3870
137.466839 101.830 -156.8678
138.462981 101.709 -157.3387
139.466340 101.604 -157.8005
140.476971 101.518 -158.2537
141.494925 101.450 -158.6991
142.520256 101.401 -159.1374
143.553016 101.368 -159.5690
144.593260 101.349 -159.9944
145.641043 101.341 -160.4135
146.696418 101.338 -160.8263
147.759441 101.339 -161.2328
148.830166 101.338 -161.6329
149.908651 101.332 -162.0266
150.994951 101.321 -162.4137
152.089123 101.303 -162.7942
153.191223 101.278 -163.1682
154.301310 101.245 -163.5355
155.419441 101.208 -163.8962
156.545674 101.166 -164.2500
157.680069 101.122 -164.5968
158.822683 101.078 -164.9360
159.973578 101.035 -165.2672
161.132813 100.993 -165.5898
162.300447 100.955 -165.9034
163.476543 100.920 -166.2073
164.661162 100.888 -166.5013
165.854364 100.861 -166.7851
167.056213 100.838 -167.0585
168.266772 100.820 -167.3217
169.486102 100.807 -167.5753
170.714268 100.800 -167.8201
171.951334 100.799 -168.0570
173.197364 100.804 -168.2876
174.452424 100.815 -168.5136
175.716578 100.832 -168.7371
176.989893 100.855 -168.9606
178.272434 100.883 -169.1868
179.564270 100.914 -169.4187
180.865467 100.947 -169.6591
182.176092 100.981 -169.9107
183.496216 101.014 -170.1755
184.825905 101.044 -170.4551
186.165229 101.072 -170.7503
187.514259 101.096 -171.0612
188.873065 101.116 -171.3869
190.241717 101.131 -171.7260
191.620287 101.144 -172.0767
193.008847 101.152 -172.4366
194.407468 101.158 -172.8029
195.816225 101.161 -173.1730
197.235190 101.162 -173.5442
198.664438 101.161 -173.9142
200.104042 101.157 -174.2809
201.554078 101.151 -174.6428
203.014622 101.142 -174.9985
204.485750 101.129 -175.3470
205.967538 101.114 -175.6876
207.460064 101.095 -176.0197
208.963405 101.072 -176.3429
210.477640 101.046 -176.6571
212.002848 101.016 -176.9624
213.539108 100.983 -177.2591
215.086500 100.948 -177.5475
216.645105 100.911 -177.8281
218.215005 100.872 -178.1014
219.796281 100.832 -178.3679
221.389015 100.789 -178.6281
222.993292 100.744 -178.8825
224.609193 100.696 -179.1313
226.236804 100.644 -179.3750
227.876209 100.588 -179.6138
229.527494 100.527 -179.8480
231.190745 100.461 179.9219
232.866048 100.391 179.6959
234.553491 100.315 179.4736
236.253163 100.234 179.2551
237.965150 100.150 179.0401
239.689544 100.063 178.8287
241.426433 99.973 178.6210
243.175909 99.883 178.4168
244.938062 99.792 178.2163
246.712984 99.703 178.0195
248.500768 99.614 177.8264
250.301507 99.529 177.6373
252.115295 99.447 177.4520
253.942226 99.368 177.2708
255.782396 99.295 177.0935
257.635901 99.226 176.9200
259.502837 99.163 176.7502
261.383301 99.106 176.5837
263.277392 99.056 176.4203
265.185209 99.012 176.2597
267.106850 98.974 176.1019
269.042417 98.943 175.9467
270.992009 98.918 175.7938
272.955729 98.898 175.6432
274.933678 98.883 175.4947
276.925961 98.872 175.3484
278.932681 98.864 175.2045
280.953942 98.859 175.0632
282.989850 98.857 174.9248
285.040511 98.857 174.7895
287.106032 98.860 174.6573
289.186521 98.867 174.5284
291.282086 98.878 174.4026
293.392836 98.894 174.2797
295.518881 98.915 174.1595
297.660333 98.942 174.0419
299.817302 98.975 173.9269
301.989902 99.012 173.8143
304.178245 99.054 173.7042
306.382446 99.098 173.5966
308.602620 99.142 173.4913
310.838882 99.185 173.3882
313.091348 99.225 173.2872
315.360137 99.260 173.1883
317.645367 99.289 173.0915
319.947156 99.311 172.9968
322.265625 99.325 172.9043
324.600895 99.330 172.8141
326.953086 99.326 172.7262
329.322323 99.311 172.6407
331.708729 99.286 172.5573
334.112427 99.251 172.4759
336.533543 99.206 172.3964
338.972204 99.150 172.3185
341.428536 99.085 172.2425
343.902668 99.012 172.1681
346.394729 98.932 172.0954
348.904848 98.845 172.0247
351.433156 98.755 171.9559
353.979786 98.663 171.8894
356.544869 98.572 171.8251
359.128540 98.484 171.7634
361.730934 98.403 171.7040
364.352185 98.331 171.6472
366.992431 98.271 171.5930
369.651810 98.226 171.5411
372.330459 98.197 171.4917
375.028519 98.185 171.4446
377.746130 98.192 171.3998
380.483434 98.215 171.3572
383.240574 98.254 171.3167
386.017693 98.308 171.2780
388.814937 98.372 171.2413
391.632450 98.446 171.2065
394.470380 98.525 171.1735
397.328875 98.607 171.1424
400.208084 98.690 171.1131
403.108157 98.773 171.0857
406.029245 98.853 171.0603
408.971500 98.931 171.0370
411.935076 99.005 171.0160
414.920127 99.077 170.9972
417.926810 99.146 170.9807
420.955280 99.212 170.9666
424.005695 99.278 170.9546
427.078215 99.344 170.9448
430.173000 99.410 170.9369
433.290211 99.476 170.9309
436.430010 99.542 170.9269
439.592562 99.609 170.9247
442.778031 99.674 170.9244
445.986583 99.736 170.9260
449.218386 99.795 170.9294
452.473607 99.848 170.9345
455.752418 99.894 170.9412
459.054987 99.931 170.9494
462.381489 99.959 170.9590
465.732096 99.977 170.9701
469.106983 99.984 170.9828
472.506325 99.981 170.9970
475.930301 99.968 171.0129
479.379088 99.947 171.0305
482.852867 99.917 171.0498
486.351817 99.880 171.0708
489.876123 99.838 171.0935
493.425968 99.791 171.1178
497.001536 99.739 171.1439
500.603014 99.685 171.1718
504.230589 99.627 171.2016
507.884452 99.566 171.2333
511.564792 99.502 171.2670
515.271802 99.435 171.3026
519.005673 99.367 171.3401
522.766602 99.297 171.3796
526.554785 99.227 171.4211
530.370418 99.158 171.4644
534.213700 99.092 171.5098
538.084833 99.032 171.5570
541.984018 98.979 171.6060
545.911457 98.933 171.6567
549.867357 98.898 171.7088
553.851922 98.871 171.7621
557.865362 98.854 171.8164
561.907884 98.844 171.8716
565.979700 98.840 171.9277
570.081022 98.841 171.9846
574.212064 98.843 172.0425
578.373042 98.844 172.1015
582.564171 98.844 172.1617
586.785671 98.840 172.2234
591.037762 98.830 172.2866
595.320665 98.815 172.3517
599.634604 98.793 172.4187
603.979804 98.764 172.4876
608.356491 98.728 172.5586
612.764893 98.685 172.6314
617.205240 98.637 172.7061
621.677763 98.585 172.7824
626.182696 98.529 172.8603
630.720274 98.471 172.9398
635.290733 98.414 173.0208
639.894312 98.358 173.1035
644.531250 98.307 173.1877
649.201789 98.260 173.2735
653.906173 98.221 173.3608
658.644647 98.188 173.4497
663.417457 98.163 173.5401
668.224854 98.145 173.6320
673.067086 98.133 173.7254
677.944408 98.125 173.8205
682.857073 98.120 173.9173
687.805336 98.116 174.0160
692.789457 98.112 174.1168
697.809695 98.107 174.2198
702.866312 98.098 174.3253
707.959571 98.086 174.4330
713.089738 98.069 174.5432
718.257080 98.048 174.6558
723.461867 98.023 174.7706
728.704370 97.994 174.8877
733.984862 97.961 175.0071
739.303619 97.925 175.1288
744.660918 97.887 175.2527
750.057038 97.847 175.3787
755.492260 97.806 175.5069
760.966869 97.765 175.6369
766.481148 97.723 175.7686
772.035387 97.680 175.9018
777.629873 97.636 176.0362
783.264900 97.589 176.1716
788.940760 97.540 176.3078
794.657750 97.487 176.4449
800.416168 97.429 176.5830
806.216313 97.366 176.7222
812.058489 97.297 176.8625
817.943000 97.222 177.0038
823.870152 97.141 177.1459
829.840255 97.053 177.2887
835.853619 96.961 177.4320
841.910559 96.865 177.5755
848.011390 96.764 177.7193
854.156430 96.662 177.8633
860.346000 96.558 178.0077
866.580422 96.454 178.1526
872.860020 96.352 178.2983
879.185124 96.251 178.4451
885.556062 96.154 178.5933
891.973166 96.061 178.7430
898.436771 95.975 178.8944
904.947215 95.895 179.0477
911.504835 95.823 179.2028
918.109975 95.760 179.3599
924.762978 95.707 179.5189
931.464192 95.663 179.6800
938.213966 95.630 179.8431
945.012651 95.607 -179.9917
951.860602 95.594 -179.8240
958.758176 95.590 -179.6537
965.705733 95.594 -179.4806
972.703635 95.606 -179.3044
979.752246 95.625 -179.1252
986.851935 95.650 -178.9431
994.003071 95.681 -178.7584
1001.206027 95.717 -178.5713
1008.461179 95.758 -178.3821
1015.768904 95.804 -178.1908
1023.129584 95.855 -177.9975
1030.543603 95.913 -177.8019
1038.011347 95.978 -177.6039
1045.533205 96.050 -177.4032
1053.109569 96.131 -177.1997
1060.740836 96.219 -176.9936
1068.427401 96.315 -176.7854
1076.169666 96.418 -176.5758
1083.968035 96.527 -176.3658
1091.822915 96.640 -176.1561
1099.734713 96.756 -175.9477
1107.703844 96.873 -175.7411
1115.730723 96.988 -175.5370
1123.815768 97.101 -175.3354
1131.959400 97.209 -175.1366
1140.162045 97.312 -174.9406
1148.424129 97.408 -174.7476
1156.746083 97.498 -174.5574
1165.128342 97.583 -174.3699
1173.571343 97.663 -174.1846
1182.075524 97.739 -174.0010
1190.641331 97.812 -173.8183
1199.269209 97.884 -173.6358
1207.959608 97.955 -173.4527
1216.712981 98.026 -173.2681
1225.529785 98.097 -173.0814
1234.410479 98.169 -172.8921
1243.355526 98.240 -172.6997
1252.365393 98.312 -172.5040
1261.440549 98.382 -172.3045
1270.581467 98.450 -172.1012
1279.788624 98.516 -171.8938
1289.062500 98.580 -171.6824
1298.403578 98.640 -171.4669
1307.812346 98.698 -171.2474
1317.289293 98.753 -171.0241
1326.834914 98.805 -170.7970
1336.449707 98.855 -170.5663
1346.134173 98.903 -170.3324
1355.888816 98.950 -170.0956
1365.714145 98.995 -169.8560
1375.610673 99.038 -169.6138
1385.578915 99.081 -169.3689
1395.619391 99.121 -169.1209
1405.732624 99.161 -168.8697
1415.919142 99.200 -168.6151
1426.179476 99.238 -168.3572
1436.514160 99.277 -168.0967
1446.923734 99.317 -167.8346
1457.408740 99.359 -167.5724
1467.969724 99.404 -167.3117
1478.607238 99.452 -167.0546
1489.321836 99.505 -166.8027
1500.114076 99.561 -166.5577
1510.984521 99.622 -166.3203
1521.933737 99.686 -166.0906
1532.962297 99.754 -165.8680
1544.070773 99.825 -165.6510
1555.259747 99.898 -165.4376
1566.529800 99.972 -165.2251
1577.881521 100.047 -165.0111
1589.315501 100.123 -164.7931
1600.832336 100.200 -164.5694
1612.432627 100.276 -164.3385
1624.116978 100.353 -164.0999
1635.886000 100.431 -163.8534
1647.740304 100.509 -163.5995
1659.680509 100.589 -163.3392
1671.707238 100.671 -163.0743
1683.821118 100.754 -162.8069
1696.022780 100.841 -162.5394
1708.312860 100.930 -162.2740
1720.692000 101.022 -162.0128
1733.160843 101.116 -161.7579
1745.720041 101.214 -161.5109
1758.370248 101.313 -161.2729
1771.112124 101.414 -161.0448
1783.946332 101.515 -160.8266
1796.873543 101.617 -160.6180
1809.894429 101.718 -160.4182
1823.009670 101.819 -160.2263
1836.219950 101.918 -160.0412
1849.525956 102.015 -159.8618
1862.928384 102.111 -159.6869
1876.427931 102.207 -159.5153
1890.025301 102.301 -159.3458
1903.721204 102.396 -159.1774
1917.516352 102.490 -159.0096
1931.411466 102.585 -158.8426
1945.407270 102.681 -158.6776
1959.504493 102.776 -158.5171
1973.703870 102.871 -158.3641
1988.006142 102.964 -158.2218
2002.412054 103.055 -158.0937
2016.922357 103.143 -157.9829
2031.537808 103.226 -157.8922
2046.259169 103.303 -157.8237
2061.087206 103.374 -157.7785
2076.022694 103.438 -157.7564
2091.066410 103.495 -157.7565
2106.219139 103.545 -157.7775
2121.481671 103.590 -157.8183
2136.854802 103.629 -157.8779
2152.339333 103.665 -157.9556
2167.936071 103.699 -158.0506
2183.645829 103.732 -158.1626
2199.469427 103.766 -158.2918
2215.407689 103.802 -158.4390
2231.461446 103.841 -158.6055
2247.631536 103.884 -158.7925
2263.918800 103.932 -159.0013
2280.324089 103.984 -159.2333
2296.848258 104.040 -159.4901
2313.492167 104.102 -159.7740
2330.256685 104.167 -160.0876
2347.142685 104.236 -160.4338
2364.151049 104.308 -160.8155
2381.282662 104.383 -161.2354
2398.538418 104.460 -161.6965
2415.919216 104.538 -162.2007
2433.425962 104.616 -162.7493
2451.059570 104.695 -163.3418
2468.820958 104.772 -163.9774
2486.711052 104.849 -164.6543
2504.730786 104.925 -165.3703
2522.881098 105.001 -166.1232
2541.162934 105.077 -166.9118
2559.577248 105.154 -167.7359
2578.125000 105.232 -168.5969
2596.807157 105.311 -169.4967
2615.624692 105.393 -170.4368
2634.578586 105.476 -171.4172
2653.669829 105.560 -172.4368
2672.899414 105.645 -173.4927
2692.268345 105.731 -174.5807
2711.777632 105.816 -175.6959
2731.428290 105.899 -176.8327
2751.221345 105.981 -177.9860
2771.157829 106.058 -179.1505
2791.238781 106.131 179.6789
2811.465248 106.196 178.5076
2831.838284 106.254 177.3410
2852.358952 106.301 176.1852
2873.028321 106.336 175.0464
2893.847468 106.358 173.9308
2914.817480 106.366 172.8438
2935.939449 106.360 171.7902
2957.214476 106.339 170.7731
2978.643672 106.303 169.7947
3000.228152 106.253 168.8555
3021.969041 106.189 167.9550
3043.867475 106.111 167.0914
3065.924593 106.020 166.2628
3088.141547 105.917 165.4662
3110.519493 105.805 164.6974
3133.059600 105.683 163.9503
3155.763041 105.555 163.2156
3178.631001 105.421 162.4814
3201.664672 105.283 161.7332
3224.865254 105.141 160.9547
3248.233957 104.994 160.1298
3271.771999 104.841 159.2443
3295.480608 104.680 158.2883
3319.361019 104.507 157.2576
3343.414477 104.320 156.1542
3367.642236 104.113 154.9861
3392.045560 103.885 153.7667
3416.625721 103.630 152.5146
3441.383999 103.345 151.2538
3466.321686 103.029 150.0139
3491.440082 102.677 148.8321
3516.740496 102.288 147.7552
3542.224247 101.859 146.8443
3567.892664 101.389 146.1795
3593.747085 100.878 145.8666
3619.788858 100.330 146.0443
3646.019340 99.750 146.8903
3672.439900 99.151 148.6282
3699.051913 98.553 151.5281
3725.856768 97.984 155.8990
3752.855862 97.482 162.0504
3780.050603 97.091 170.1897
3807.442408 96.854 -179.7697
3835.032705 96.805 -168.4177
3862.822933 96.956 -156.8172
3890.814540 97.297 -146.0887
3919.008986 97.800 -136.9477
3947.407741 98.424 -129.6022
3976.012284 99.131 -123.9346
4004.824108 99.886 -119.7037
4033.844715 100.663 -116.6574
4063.075616 101.443 -114.5751
4092.518337 102.212 -113.2768
4122.174412 102.962 -112.6195
4152.045387 103.686 -112.4919
4182.132820 104.380 -112.8077
4212.438278 105.043 -113.5000
4242.963342 105.672 -114.5170
4273.709604 106.265 -115.8179
4304.678665 106.820 -117.3694
4335.872141 107.336 -119.1428
4367.291658 107.811 -121.1110
4398.938854 108.243 -123.2471
4430.815378 108.630 -125.5229
4462.922893 108.973 -127.9088
4495.263072 109.271 -130.3747
4527.837601 109.525 -132.8907
4560.648179 109.735 -135.4289
4593.696515 109.904 -137.9643
4626.984334 110.034 -140.4750
4660.513370 110.127 -142.9424
4694.285371 110.186 -145.3514
4728.302098 110.213 -147.6893
4762.565324 110.213 -149.9464
4797.076835 110.186 -152.1154
4831.838432 110.137 -154.1917
4866.851925 110.069 -156.1727
4902.119140 109.983 -158.0574
4937.641916 109.883 -159.8457
4973.422105 109.769 -161.5371
5009.461572 109.643 -163.1303
5045.762195 109.507 -164.6223
5082.325868 109.361 -166.0089
5119.154496 109.207 -167.2849
5156.250000 109.046 -168.4451
5193.614313 108.880 -169.4861
5231.249383 108.710 -170.4065
5269.157173 108.540 -171.2073
5307.339658 108.369 -171.8915
5345.798829 108.199 -172.4632
5384.536691 108.032 -172.9267
5423.555263 107.868 -173.2859
5462.856580 107.708 -173.5446
5502.442691 107.552 -173.7070
5542.315659 107.403 -173.7791
5582.477563 107.262 -173.7691
5622.930497 107.129 -173.6873
5663.676569 107.007 -173.5454
5704.717904 106.896 -173.3549
5746.056642 106.796 -173.1258
5787.694937 106.708 -172.8657
5829.634960 106.631 -172.5794
5871.878898 106.565 -172.2686
5914.428953 106.510 -171.9319
5957.287343 106.463 -171.5654
6000.456303 106.425 -171.1625
6043.938083 106.395 -170.7145
6087.734950 106.371 -170.2114
6131.849187 106.354 -169.6432
6176.283094 106.343 -169.0019
6221.038987 106.339 -168.2827
6266.119200 106.341 -167.4847
6311.526083 106.351 -166.6113
6357.262002 106.368 -165.6700
6403.329344 106.393 -164.6721
6449.730508 106.427 -163.6315
6496.467914 106.470 -162.5633
6543.543998 106.522 -161.4839
6590.961215 106.585 -160.4097
6638.722037 106.660 -159.3562
6686.828954 106.747 -158.3380
6735.284473 106.847 -157.3678
6784.091120 106.961 -156.4576
6833.251441 107.091 -155.6193
6882.767998 107.238 -154.8653
6932.643372 107.401 -154.2079
6982.880164 107.581 -153.6590
7033.480992 107.776 -153.2284
7084.448495 107.984 -152.9235
7135.785329 108.204 -152.7495
7187.494171 108.433 -152.7093
7239.577717 108.667 -152.8045
7292.038681 108.906 -153.0351
7344.879799 109.144 -153.3996
7398.103826 109.379 -153.8948
7451.713536 109.607 -154.5159
7505.711724 109.827 -155.2572
7560.101205 110.035 -156.1126
7614.884815 110.230 -157.0770
7670.065409 110.410 -158.1470
7725.645865 110.572 -159.3219
7781.629080 110.716 -160.6025
7838.017972 110.838 -161.9909
7894.815481 110.935 -163.4881
7952.024569 111.005 -165.0917
8009.648217 111.043 -166.7931
8067.689429 111.045 -168.5754
8126.151233 111.005 -170.4113
8185.036674 110.921 -172.2624
8244.348824 110.790 -174.0797
8304.090774 110.609 -175.8051
8364.265639 110.380 -177.3737
8424.876556 110.105 -178.7188
8485.926684 109.790 -179.7768
8547.419207 109.443 179.5060
8609.357330 109.075 179.1677
8671.744282 108.699 179.2256
8734.583316 108.330 179.6733
8797.877707 107.982 -179.5204
8861.630756 107.670 -178.4083
8925.845785 107.405 -177.0588
8990.526143 107.198 -175.5491
9055.675202 107.054 -173.9576
9121.296357 106.975 -172.3582
9187.393031 106.960 -170.8166
9253.968668 107.003 -169.3893
9321.026740 107.099 -168.1243
9388.570742 107.238 -167.0622
9456.604196 107.413 -166.2374
9525.130648 107.615 -165.6785
9594.153671 107.834 -165.4087
9663.676863 108.063 -165.4451
9733.703850 108.293 -165.7986
9804.238280 108.519 -166.4732
9875.283832 108.733 -167.4663
9946.844210 108.931 -168.7689
10018.923143 109.109 -170.3664
10091.524390 109.262 -172.2402
10164.651736 109.388 -174.3681
10238.308993 109.485 -176.7261
10312.500000 109.551 -179.2885
10387.228626 109.584 177.9712
10462.498767 109.582 175.0811
10538.314345 109.542 172.0715
10614.679315 109.463 168.9758
10691.597657 109.343 165.8304
10769.073381 109.180 162.6740
10847.110526 108.973 159.5459
10925.713161 108.723 156.4833
11004.885382 108.431 153.5189
11084.631318 108.101 150.6787
11164.955126 107.735 147.9804
11245.860993 107.339 145.4320
11327.353138 106.916 143.0314
11409.435808 106.473 140.7660
11492.113283 106.014 138.6138
11575.389873 105.547 136.5444
11659.269920 105.075 134.5209
11743.757796 104.604 132.5020
11828.857906 104.140 130.4443
11914.574686 103.685 128.3040
12000.912606 103.244 126.0384
12087.876166 102.817 123.6073
12175.469900 102.406 120.9742
12263.698373 102.007 118.1077
12352.566187 101.619 114.9821
12442.077974 101.235 111.5790
12532.238400 100.849 107.8871
12623.052165 100.453 103.9028
12714.524005 100.039 99.6294
12806.658687 99.597 95.0761
12899.461015 99.119 90.2563
12992.935827 98.601 85.1849
13087.087996 98.035 79.8741
13181.922430 97.419 74.3295
13277.444074 96.751 68.5456
13373.657907 96.032 62.5015
13470.568945 95.264 56.1584
13568.182241 94.450 49.4586
13666.502883 93.595 42.3288
13765.535996 92.704 34.6893
13865.286744 91.787 26.4716
13965.760328 90.854 17.6502
14066.961984 89.921 8.2831
14168.896989 89.007 -1.4552
14271.570658 88.137 -11.2789
14374.988342 87.340 -20.8550
14479.155433 86.644 -29.8998
14584.077362 86.073 -38.2488
14689.759598 85.634 -45.8643
14796.207652 85.320 -52.7963
14903.427072 85.108 -59.1334
15011.423448 84.970 -64.9681
15120.202410 84.875 -70.3790
15229.769630 84.797 -75.4262
15340.130819 84.714 -80.1515
15451.291730 84.611 -84.5794
15563.258160 84.476 -88.7189
15676.035944 84.301 -92.5633
15789.630962 84.084 -96.0918
15904.049137 83.822 -99.2701
16019.296433 83.519 -102.0513
16135.378859 83.182 -104.3767
16252.302465 82.823 -106.1771
16370.073348 82.461 -107.3751
16488.697648 82.123 -107.8927
16608.181548 81.844 -107.6671
16728.531278 81.667 -106.6791
16849.753112 81.635 -104.9913
16971.853368 81.778 -102.7853
17094.838414 82.110 -100.3704
17218.714660 82.616 -98.1425
17343.488565 83.264 -96.5002
17469.166632 84.011 -95.7594
17595.755415 84.818 -96.1101
17723.261512 85.651 -97.6256
17851.691571 86.484 -100.2979
17981.052287 87.300 -104.0773
18111.350404 88.085 -108.8999
18242.592715 88.833 -114.7045
18374.786062 89.535 -121.4370
18507.937336 90.190 -129.0486
18642.053479 90.792 -137.4846
18777.141484 91.338 -146.6641
18913.208391 91.826 -156.4518
19050.261296 92.253 -166.6271
19188.307342 92.616 -176.8667
19327.353727 92.915 173.2437
19467.407699 93.152 164.1657
19608.476560 93.330 156.3441
19750.567664 93.455 150.1550
19893.688419 93.534 145.8790
20037.846286 93.571 143.6971
