* Measurement data measured by REW V5.31.3
* Source: EXCL: Headset (USB-C to 3.5mm Headphone Jack Adapter), MICROPHONE (Master Volume), 0, volume: 0.260
* Format: 256k Log Swept Sine, 1 sweep at -12.0 dBFS with no timing reference
* Dated: Feb 9, 2025 9:25:11 PM
* REW Settings:
*  C-weighting compensation: Off
*  Target level: 75.0 dB
* Note: ; 
* Measurement: KSC75 R4
* Smoothing: 1/6 octave
* Frequency Step: 96 ppo
* Start Frequency: 20.0 Hz
*
* Freq(Hz) SPL(dB) Phase(degrees)
20.141602 87.206 -4.6018
20.287556 87.228 -4.7675
20.434568 87.256 -4.9872
20.582645 87.286 -5.2530
20.731796 87.317 -5.5571
20.882027 87.344 -5.8929
21.033346 87.367 -6.2561
21.185763 87.383 -6.6439
21.339284 87.393 -7.0555
21.493917 87.395 -7.4912
21.649671 87.391 -7.9521
21.806553 87.381 -8.4395
21.964572 87.368 -8.9542
22.123737 87.352 -9.4967
22.284054 87.337 -10.0665
22.445534 87.323 -10.6624
22.608183 87.313 -11.2821
22.772012 87.310 -11.9228
22.937027 87.313 -12.5808
23.103238 87.326 -13.2522
23.270654 87.349 -13.9324
23.439282 87.383 -14.6169
23.609133 87.429 -15.3006
23.780215 87.486 -15.9788
23.952536 87.554 -16.6463
24.126106 87.632 -17.2984
24.300934 87.720 -17.9305
24.477028 87.817 -18.5388
24.654399 87.919 -19.1199
24.833055 88.027 -19.6719
25.013005 88.139 -20.1941
25.194260 88.252 -20.6874
25.376828 88.366 -21.1542
25.560719 88.479 -21.5986
25.745942 88.590 -22.0263
25.932508 88.698 -22.4435
26.120426 88.803 -22.8574
26.309705 88.904 -23.2747
26.500356 89.002 -23.7020
26.692388 89.095 -24.1445
26.885812 89.185 -24.6065
27.080638 89.272 -25.0907
27.276876 89.357 -25.5986
27.474535 89.441 -26.1302
27.673627 89.526 -26.6846
27.874161 89.615 -27.2599
28.076149 89.707 -27.8533
28.279600 89.807 -28.4614
28.484526 89.915 -29.0800
28.690937 90.034 -29.7043
28.898843 90.166 -30.3292
29.108256 90.310 -30.9496
29.319186 90.467 -31.5606
29.531645 90.638 -32.1583
29.745644 90.820 -32.7400
29.961193 91.012 -33.3048
30.178304 91.212 -33.8536
30.396989 91.415 -34.3892
30.617258 91.617 -34.9157
30.839123 91.815 -35.4381
31.062596 92.003 -35.9615
31.287688 92.178 -36.4903
31.514412 92.335 -37.0274
31.742778 92.470 -37.5743
31.972800 92.582 -38.1304
32.204488 92.668 -38.6938
32.437855 92.727 -39.2614
32.672913 92.758 -39.8294
32.909674 92.763 -40.3946
33.148151 92.743 -40.9538
33.388356 92.700 -41.5052
33.630302 92.637 -42.0481
33.874001 92.558 -42.5828
34.119466 92.466 -43.1112
34.366710 92.365 -43.6356
34.615745 92.259 -44.1591
34.866585 92.152 -44.6852
35.119243 92.049 -45.2170
35.373731 91.953 -45.7572
35.630064 91.868 -46.3077
35.888254 91.797 -46.8693
36.148315 91.743 -47.4418
36.410261 91.708 -48.0236
36.674104 91.695 -48.6126
36.939860 91.703 -49.2056
37.207542 91.735 -49.7993
37.477163 91.791 -50.3902
37.748738 91.870 -50.9751
38.022281 91.972 -51.5513
38.297806 92.096 -52.1170
38.575327 92.241 -52.6714
38.854860 92.406 -53.2145
39.136419 92.590 -53.7473
39.420017 92.792 -54.2710
39.705671 93.010 -54.7875
39.993395 93.243 -55.2982
40.283203 93.490 -55.8042
40.575112 93.750 -56.3066
40.869136 94.021 -56.8060
41.165290 94.301 -57.3036
41.463591 94.591 -57.8009
41.764053 94.887 -58.2998
42.066693 95.188 -58.8029
42.371525 95.491 -59.3122
42.678567 95.795 -59.8296
42.987834 96.097 -60.3558
43.299341 96.394 -60.8905
43.613106 96.685 -61.4327
43.929145 96.966 -61.9812
44.247473 97.235 -62.5348
44.568109 97.492 -63.0924
44.891068 97.733 -63.6535
45.216367 97.958 -64.2174
45.544023 98.164 -64.7832
45.874054 98.352 -65.3496
46.206476 98.520 -65.9153
46.541307 98.668 -66.4793
46.878565 98.798 -67.0411
47.218266 98.910 -67.6013
47.560429 99.005 -68.1611
47.905072 99.084 -68.7218
48.252212 99.150 -69.2848
48.601867 99.202 -69.8503
48.954056 99.244 -70.4180
49.308798 99.277 -70.9871
49.666109 99.303 -71.5567
50.026010 99.324 -72.1265
50.388520 99.342 -72.6965
50.753656 99.358 -73.2672
51.121437 99.376 -73.8393
51.491884 99.395 -74.4131
51.865016 99.418 -74.9889
52.240851 99.445 -75.5665
52.619410 99.476 -76.1455
53.000712 99.512 -76.7255
53.384777 99.552 -77.3058
53.771625 99.596 -77.8860
54.161276 99.642 -78.4652
54.553751 99.689 -79.0431
54.949070 99.738 -79.6191
55.347254 99.785 -80.1928
55.748323 99.830 -80.7638
56.152298 99.873 -81.3319
56.559201 99.911 -81.8973
56.969052 99.946 -82.4607
57.381873 99.977 -83.0238
57.797686 100.003 -83.5887
58.216512 100.026 -84.1578
58.638373 100.046 -84.7336
59.063291 100.064 -85.3178
59.491288 100.080 -85.9117
59.922386 100.096 -86.5159
60.356608 100.111 -87.1301
60.793977 100.127 -87.7532
61.234515 100.144 -88.3833
61.678246 100.161 -89.0182
62.125192 100.178 -89.6558
62.575377 100.196 -90.2942
63.028824 100.215 -90.9322
63.485557 100.235 -91.5694
63.945599 100.257 -92.2057
64.408975 100.280 -92.8414
64.875709 100.306 -93.4770
65.345825 100.335 -94.1133
65.819348 100.366 -94.7509
66.296302 100.399 -95.3900
66.776713 100.435 -96.0307
67.260604 100.474 -96.6729
67.748002 100.516 -97.3165
68.238932 100.560 -97.9612
68.733420 100.606 -98.6070
69.231490 100.655 -99.2535
69.733170 100.705 -99.9007
70.238485 100.758 -100.5485
70.747463 100.811 -101.1969
71.260128 100.866 -101.8462
71.776508 100.922 -102.4969
72.296630 100.979 -103.1496
72.820521 101.036 -103.8048
73.348209 101.093 -104.4632
73.879720 101.150 -105.1250
74.415083 101.208 -105.7906
74.954326 101.265 -106.4600
75.497475 101.322 -107.1332
76.044561 101.377 -107.8098
76.595612 101.432 -108.4899
77.150655 101.484 -109.1731
77.709720 101.534 -109.8591
78.272837 101.581 -110.5478
78.840034 101.625 -111.2391
79.411342 101.665 -111.9328
79.986789 101.701 -112.6288
80.566406 101.733 -113.3270
81.150224 101.761 -114.0271
81.738272 101.786 -114.7288
82.330581 101.808 -115.4318
82.927182 101.829 -116.1358
83.528107 101.849 -116.8405
84.133386 101.870 -117.5455
84.743051 101.895 -118.2505
85.357134 101.927 -118.9553
85.975667 101.968 -119.6596
86.598682 102.022 -120.3635
87.226212 102.092 -121.0670
87.858289 102.182 -121.7703
88.494946 102.293 -122.4737
89.136217 102.426 -123.1772
89.782135 102.583 -123.8811
90.432733 102.762 -124.5857
91.088046 102.959 -125.2910
91.748108 103.172 -125.9974
92.412952 103.396 -126.7048
93.082615 103.624 -127.4133
93.757130 103.853 -128.1226
94.436533 104.076 -128.8323
95.120859 104.289 -129.5421
95.810144 104.488 -130.2515
96.504423 104.671 -130.9600
97.203734 104.837 -131.6671
97.908112 104.983 -132.3724
98.617595 105.112 -133.0754
99.332219 105.224 -133.7760
100.052021 105.320 -134.4737
100.777039 105.404 -135.1686
101.507311 105.476 -135.8604
102.242875 105.540 -136.5489
102.983769 105.596 -137.2338
103.730032 105.647 -137.9147
104.481702 105.692 -138.5912
105.238820 105.731 -139.2630
106.001424 105.764 -139.9297
106.769554 105.789 -140.5916
107.543250 105.805 -141.2484
108.322553 105.810 -141.9005
109.107503 105.802 -142.5479
109.898141 105.781 -143.1909
110.694508 105.746 -143.8299
111.496646 105.696 -144.4652
112.304596 105.632 -145.0975
113.118402 105.556 -145.7270
113.938104 105.469 -146.3541
114.763747 105.374 -146.9787
115.595372 105.272 -147.6001
116.433024 105.166 -148.2180
117.276746 105.058 -148.8317
118.126581 104.950 -149.4410
118.982575 104.843 -150.0455
119.844772 104.739 -150.6450
120.713217 104.637 -151.2393
121.587954 104.538 -151.8283
122.469031 104.441 -152.4118
123.356492 104.344 -152.9896
124.250384 104.247 -153.5619
125.150753 104.148 -154.1288
126.057647 104.044 -154.6904
126.971113 103.936 -155.2470
127.891198 103.822 -155.7988
128.817950 103.701 -156.3459
129.751418 103.573 -156.8883
130.691651 103.439 -157.4258
131.638696 103.299 -157.9584
132.592604 103.155 -158.4860
133.553425 103.009 -159.0088
134.521208 102.863 -159.5267
135.496004 102.721 -160.0401
136.477864 102.586 -160.5489
137.466839 102.462 -161.0534
138.462981 102.351 -161.5535
139.466340 102.257 -162.0491
140.476971 102.180 -162.5402
141.494925 102.122 -163.0267
142.520256 102.082 -163.5086
143.553016 102.058 -163.9859
144.593260 102.047 -164.4586
145.641043 102.045 -164.9269
146.696418 102.050 -165.3907
147.759441 102.056 -165.8503
148.830166 102.061 -166.3057
149.908651 102.061 -166.7570
150.994951 102.055 -167.2045
152.089123 102.042 -167.6482
153.191223 102.021 -168.0884
154.301310 101.993 -168.5251
155.419441 101.959 -168.9584
156.545674 101.922 -169.3885
157.680069 101.882 -169.8154
158.822683 101.842 -170.2392
159.973578 101.802 -170.6601
161.132813 101.764 -171.0781
162.300447 101.729 -171.4935
163.476543 101.698 -171.9066
164.661162 101.670 -172.3177
165.854364 101.645 -172.7273
167.056213 101.624 -173.1356
168.266772 101.607 -173.5429
169.486102 101.593 -173.9494
170.714268 101.584 -174.3554
171.951334 101.578 -174.7610
173.197364 101.576 -175.1663
174.452424 101.579 -175.5714
175.716578 101.584 -175.9762
176.989893 101.593 -176.3804
178.272434 101.603 -176.7836
179.564270 101.614 -177.1852
180.865467 101.625 -177.5843
182.176092 101.634 -177.9802
183.496216 101.640 -178.3720
184.825905 101.643 -178.7589
186.165229 101.642 -179.1402
187.514259 101.636 -179.5150
188.873065 101.627 -179.8826
190.241717 101.613 179.7577
191.620287 101.597 179.4066
193.008847 101.579 179.0645
194.407468 101.559 178.7320
195.816225 101.538 178.4092
197.235190 101.516 178.0963
198.664438 101.494 177.7930
200.104042 101.471 177.4992
201.554078 101.447 177.2146
203.014622 101.421 176.9388
204.485750 101.393 176.6712
205.967538 101.363 176.4117
207.460064 101.330 176.1599
208.963405 101.294 175.9157
210.477640 101.256 175.6787
212.002848 101.214 175.4487
213.539108 101.170 175.2253
215.086500 101.124 175.0078
216.645105 101.077 174.7957
218.215005 101.028 174.5884
219.796281 100.977 174.3855
221.389015 100.925 174.1865
222.993292 100.871 173.9911
224.609193 100.815 173.7993
226.236804 100.755 173.6108
227.876209 100.692 173.4257
229.527494 100.624 173.2437
231.190745 100.551 173.0647
232.866048 100.474 172.8885
234.553491 100.391 172.7150
236.253163 100.305 172.5440
237.965150 100.215 172.3754
239.689544 100.123 172.2093
241.426433 100.028 172.0455
243.175909 99.933 171.8842
244.938062 99.838 171.7250
246.712984 99.743 171.5680
248.500768 99.651 171.4129
250.301507 99.561 171.2596
252.115295 99.475 171.1082
253.942226 99.392 170.9585
255.782396 99.315 170.8105
257.635901 99.242 170.6646
259.502837 99.175 170.5206
261.383301 99.114 170.3787
263.277392 99.060 170.2393
265.185209 99.012 170.1022
267.106850 98.970 169.9678
269.042417 98.935 169.8361
270.992009 98.905 169.7071
272.955729 98.881 169.5810
274.933678 98.861 169.4578
276.925961 98.846 169.3373
278.932681 98.834 169.2196
280.953942 98.825 169.1044
282.989850 98.818 168.9915
285.040511 98.815 168.8807
287.106032 98.814 168.7719
289.186521 98.817 168.6649
291.282086 98.825 168.5598
293.392836 98.837 168.4564
295.518881 98.856 168.3549
297.660333 98.880 168.2552
299.817302 98.910 168.1575
301.989902 98.945 168.0618
304.178245 98.983 167.9680
306.382446 99.025 167.8762
308.602620 99.066 167.7863
310.838882 99.106 167.6983
313.091348 99.144 167.6122
315.360137 99.176 167.5281
317.645367 99.203 167.4460
319.947156 99.223 167.3659
322.265625 99.234 167.2878
324.600895 99.236 167.2118
326.953086 99.229 167.1378
329.322323 99.212 167.0657
331.708729 99.185 166.9956
334.112427 99.147 166.9274
336.533543 99.100 166.8610
338.972204 99.042 166.7961
341.428536 98.974 166.7328
343.902668 98.898 166.6708
346.394729 98.815 166.6101
348.904848 98.726 166.5506
351.433156 98.633 166.4926
353.979786 98.538 166.4362
356.544869 98.443 166.3817
359.128540 98.352 166.3294
361.730934 98.268 166.2795
364.352185 98.192 166.2323
366.992431 98.129 166.1876
369.651810 98.080 166.1455
372.330459 98.048 166.1058
375.028519 98.033 166.0685
377.746130 98.036 166.0333
380.483434 98.057 166.0001
383.240574 98.094 165.9686
386.017693 98.145 165.9387
388.814937 98.207 165.9102
391.632450 98.278 165.8829
394.470380 98.355 165.8569
397.328875 98.435 165.8323
400.208084 98.517 165.8091
403.108157 98.597 165.7874
406.029245 98.675 165.7673
408.971500 98.751 165.7487
411.935076 98.823 165.7318
414.920127 98.893 165.7165
417.926810 98.959 165.7026
420.955280 99.024 165.6903
424.005695 99.088 165.6794
427.078215 99.151 165.6700
430.173000 99.215 165.6618
433.290211 99.279 165.6550
436.430010 99.344 165.6496
439.592562 99.408 165.6455
442.778031 99.471 165.6428
445.986583 99.531 165.6414
449.218386 99.588 165.6414
452.473607 99.638 165.6427
455.752418 99.682 165.6452
459.054987 99.717 165.6490
462.381489 99.743 165.6541
465.732096 99.759 165.6603
469.106983 99.764 165.6677
472.506325 99.758 165.6761
475.930301 99.743 165.6857
479.379088 99.719 165.6965
482.852867 99.687 165.7084
486.351817 99.648 165.7218
489.876123 99.603 165.7368
493.425968 99.553 165.7535
497.001536 99.499 165.7722
500.603014 99.441 165.7928
504.230589 99.380 165.8155
507.884452 99.316 165.8400
511.564792 99.249 165.8664
515.271802 99.179 165.8947
519.005673 99.107 165.9247
522.766602 99.033 165.9566
526.554785 98.959 165.9903
530.370418 98.886 166.0258
534.213700 98.817 166.0632
538.084833 98.753 166.1023
541.984018 98.695 166.1431
545.911457 98.646 166.1855
549.867357 98.607 166.2294
553.851922 98.576 166.2747
557.865362 98.555 166.3214
561.907884 98.542 166.3693
565.979700 98.534 166.4185
570.081022 98.531 166.4690
574.212064 98.529 166.5208
578.373042 98.527 166.5740
582.564171 98.524 166.6286
586.785671 98.516 166.6846
591.037762 98.503 166.7421
595.320665 98.485 166.8010
599.634604 98.459 166.8615
603.979804 98.426 166.9235
608.356491 98.387 166.9873
612.764893 98.341 167.0530
617.205240 98.289 167.1206
621.677763 98.232 167.1902
626.182696 98.172 167.2618
630.720274 98.110 167.3356
635.290733 98.049 167.4115
639.894312 97.989 167.4896
644.531250 97.933 167.5696
649.201789 97.883 167.6519
653.906173 97.839 167.7361
658.644647 97.803 167.8222
663.417457 97.774 167.9103
668.224854 97.752 168.0000
673.067086 97.736 168.0912
677.944408 97.725 168.1837
682.857073 97.717 168.2773
687.805336 97.710 168.3720
692.789457 97.702 168.4678
697.809695 97.694 168.5647
702.866312 97.682 168.6628
707.959571 97.667 168.7620
713.089738 97.647 168.8621
718.257080 97.624 168.9628
723.461867 97.595 169.0640
728.704370 97.563 169.1653
733.984862 97.527 169.2669
739.303619 97.488 169.3687
744.660918 97.447 169.4709
750.057038 97.404 169.5739
755.492260 97.359 169.6779
760.966869 97.314 169.7834
766.481148 97.267 169.8908
772.035387 97.220 170.0005
777.629873 97.170 170.1128
783.264900 97.119 170.2280
788.940760 97.064 170.3461
794.657750 97.006 170.4674
800.416168 96.942 170.5917
806.216313 96.874 170.7189
812.058489 96.799 170.8487
817.943000 96.718 170.9809
823.870152 96.631 171.1152
829.840255 96.539 171.2512
835.853619 96.441 171.3886
841.910559 96.339 171.5272
848.011390 96.233 171.6667
854.156430 96.125 171.8070
860.346000 96.016 171.9479
866.580422 95.908 172.0894
872.860020 95.800 172.2312
879.185124 95.695 172.3734
885.556062 95.593 172.5160
891.973166 95.497 172.6590
898.436771 95.405 172.8027
904.947215 95.321 172.9475
911.504835 95.245 173.0937
918.109975 95.177 173.2418
924.762978 95.119 173.3922
931.464192 95.070 173.5455
938.213966 95.032 173.7021
945.012651 95.004 173.8622
951.860602 94.986 174.0259
958.758176 94.977 174.1930
965.705733 94.977 174.3632
972.703635 94.986 174.5359
979.752246 95.002 174.7103
986.851935 95.024 174.8856
994.003071 95.052 175.0613
1001.206027 95.085 175.2371
1008.461179 95.123 175.4127
1015.768904 95.167 175.5881
1023.129584 95.216 175.7635
1030.543603 95.271 175.9392
1038.011347 95.333 176.1153
1045.533205 95.402 176.2920
1053.109569 95.478 176.4693
1060.740836 95.562 176.6472
1068.427401 95.653 176.8257
1076.169666 95.751 177.0043
1083.968035 95.855 177.1830
1091.822915 95.962 177.3612
1099.734713 96.072 177.5388
1107.703844 96.182 177.7154
1115.730723 96.291 177.8911
1123.815768 96.397 178.0658
1131.959400 96.497 178.2396
1140.162045 96.593 178.4129
1148.424129 96.682 178.5858
1156.746083 96.765 178.7589
1165.128342 96.843 178.9323
1173.571343 96.915 179.1066
1182.075524 96.984 179.2819
1190.641331 97.051 179.4586
1199.269209 97.116 179.6369
1207.959608 97.181 179.8167
1216.712981 97.247 179.9980
1225.529785 97.313 -179.8190
1234.410479 97.379 -179.6346
1243.355526 97.446 -179.4487
1252.365393 97.512 -179.2612
1261.440549 97.578 -179.0721
1270.581467 97.641 -178.8811
1279.788624 97.703 -178.6879
1289.062500 97.761 -178.4923
1298.403578 97.816 -178.2939
1307.812346 97.868 -178.0921
1317.289293 97.917 -177.8866
1326.834914 97.963 -177.6767
1336.449707 98.007 -177.4621
1346.134173 98.049 -177.2423
1355.888816 98.089 -177.0169
1365.714145 98.127 -176.7856
1375.610673 98.165 -176.5482
1385.578915 98.201 -176.3052
1395.619391 98.237 -176.0570
1405.732624 98.272 -175.8049
1415.919142 98.307 -175.5504
1426.179476 98.343 -175.2952
1436.514160 98.379 -175.0416
1446.923734 98.417 -174.7920
1457.408740 98.457 -174.5485
1467.969724 98.500 -174.3131
1478.607238 98.547 -174.0871
1489.321836 98.596 -173.8711
1500.114076 98.649 -173.6647
1510.984521 98.706 -173.4670
1521.933737 98.766 -173.2762
1532.962297 98.829 -173.0906
1544.070773 98.894 -172.9081
1555.259747 98.962 -172.7270
1566.529800 99.031 -172.5459
1577.881521 99.102 -172.3637
1589.315501 99.174 -172.1799
1600.832336 99.247 -171.9941
1612.432627 99.319 -171.8061
1624.116978 99.392 -171.6162
1635.886000 99.465 -171.4244
1647.740304 99.538 -171.2308
1659.680509 99.612 -171.0354
1671.707238 99.685 -170.8384
1683.821118 99.760 -170.6396
1696.022780 99.837 -170.4391
1708.312860 99.915 -170.2376
1720.692000 99.995 -170.0357
1733.160843 100.077 -169.8347
1745.720041 100.162 -169.6360
1758.370248 100.249 -169.4413
1771.112124 100.337 -169.2520
1783.946332 100.426 -169.0693
1796.873543 100.516 -168.8937
1809.894429 100.605 -168.7250
1823.009670 100.693 -168.5625
1836.219950 100.779 -168.4049
1849.525956 100.865 -168.2510
1862.928384 100.949 -168.0993
1876.427931 101.032 -167.9490
1890.025301 101.115 -167.7997
1903.721204 101.198 -167.6514
1917.516352 101.281 -167.5048
1931.411466 101.365 -167.3609
1945.407270 101.448 -167.2209
1959.504493 101.532 -167.0863
1973.703870 101.614 -166.9594
1988.006142 101.694 -166.8421
2002.412054 101.772 -166.7367
2016.922357 101.845 -166.6446
2031.537808 101.913 -166.5670
2046.259169 101.976 -166.5047
2061.087206 102.032 -166.4582
2076.022694 102.082 -166.4279
2091.066410 102.125 -166.4142
2106.219139 102.162 -166.4175
2121.481671 102.194 -166.4385
2136.854802 102.223 -166.4775
2152.339333 102.249 -166.5356
2167.936071 102.273 -166.6137
2183.645829 102.298 -166.7133
2199.469427 102.324 -166.8365
2215.407689 102.353 -166.9857
2231.461446 102.385 -167.1636
2247.631536 102.421 -167.3724
2263.918800 102.460 -167.6136
2280.324089 102.503 -167.8877
2296.848258 102.549 -168.1944
2313.492167 102.598 -168.5328
2330.256685 102.649 -168.9021
2347.142685 102.702 -169.3019
2364.151049 102.757 -169.7332
2381.282662 102.813 -170.1981
2398.538418 102.870 -170.6995
2415.919216 102.927 -171.2400
2433.425962 102.983 -171.8216
2451.059570 103.039 -172.4446
2468.820958 103.093 -173.1083
2486.711052 103.145 -173.8114
2504.730786 103.195 -174.5521
2522.881098 103.243 -175.3286
2541.162934 103.288 -176.1392
2559.577248 103.332 -176.9819
2578.125000 103.374 -177.8544
2596.807157 103.414 -178.7539
2615.624692 103.453 -179.6769
2634.578586 103.490 179.3804
2653.669829 103.528 178.4221
2672.899414 103.564 177.4529
2692.268345 103.600 176.4773
2711.777632 103.636 175.5008
2731.428290 103.670 174.5291
2751.221345 103.703 173.5681
2771.157829 103.734 172.6231
2791.238781 103.761 171.6979
2811.465248 103.784 170.7952
2831.838284 103.801 169.9173
2852.358952 103.810 169.0674
2873.028321 103.809 168.2505
2893.847468 103.797 167.4734
2914.817480 103.771 166.7442
2935.939449 103.731 166.0704
2957.214476 103.678 165.4580
2978.643672 103.610 164.9105
3000.228152 103.529 164.4290
3021.969041 103.434 164.0141
3043.867475 103.326 163.6672
3065.924593 103.205 163.3907
3088.141547 103.072 163.1883
3110.519493 102.927 163.0641
3133.059600 102.772 163.0226
3155.763041 102.609 163.0685
3178.631001 102.439 163.2060
3201.664672 102.264 163.4380
3224.865254 102.087 163.7654
3248.233957 101.909 164.1870
3271.771999 101.733 164.7000
3295.480608 101.561 165.3013
3319.361019 101.393 165.9896
3343.414477 101.232 166.7657
3367.642236 101.078 167.6320
3392.045560 100.935 168.5897
3416.625721 100.804 169.6368
3441.383999 100.688 170.7672
3466.321686 100.590 171.9713
3491.440082 100.513 173.2380
3516.740496 100.458 174.5560
3542.224247 100.429 175.9142
3567.892664 100.426 177.3010
3593.747085 100.454 178.7027
3619.788858 100.513 -179.8971
3646.019340 100.605 -178.5182
3672.439900 100.731 -177.1833
3699.051913 100.891 -175.9182
3725.856768 101.083 -174.7500
3752.855862 101.307 -173.7060
3780.050603 101.557 -172.8126
3807.442408 101.831 -172.0952
3835.032705 102.124 -171.5775
3862.822933 102.431 -171.2803
3890.814540 102.745 -171.2204
3919.008986 103.061 -171.4081
3947.407741 103.371 -171.8468
3976.012284 103.670 -172.5325
4004.824108 103.952 -173.4552
4033.844715 104.211 -174.5992
4063.075616 104.444 -175.9440
4092.518337 104.646 -177.4646
4122.174412 104.814 -179.1330
4152.045387 104.946 179.0805
4182.132820 105.040 177.2067
4212.438278 105.095 175.2756
4242.963342 105.111 173.3174
4273.709604 105.087 171.3614
4304.678665 105.023 169.4363
4335.872141 104.921 167.5702
4367.291658 104.780 165.7903
4398.938854 104.603 164.1240
4430.815378 104.389 162.5983
4462.922893 104.140 161.2400
4495.263072 103.859 160.0759
4527.837601 103.546 159.1340
4560.648179 103.204 158.4443
4593.696515 102.835 158.0408
4626.984334 102.442 157.9625
4660.513370 102.028 158.2542
4694.285371 101.599 158.9672
4728.302098 101.160 160.1577
4762.565324 100.722 161.8818
4797.076835 100.295 164.1873
4831.838432 99.896 167.0999
4866.851925 99.540 170.6064
4902.119140 99.247 174.6393
4937.641916 99.034 179.0678
4973.422105 98.914 -176.2936
5009.461572 98.894 -171.6575
5045.762195 98.973 -167.2266
5082.325868 99.144 -163.1617
5119.154496 99.395 -159.5680
5156.250000 99.709 -156.4979
5193.614313 100.072 -153.9645
5231.249383 100.467 -151.9559
5269.157173 100.881 -150.4458
5307.339658 101.302 -149.4005
5345.798829 101.720 -148.7818
5384.536691 102.126 -148.5490
5423.555263 102.513 -148.6593
5462.856580 102.876 -149.0688
5502.442691 103.211 -149.7324
5542.315659 103.516 -150.6049
5582.477563 103.788 -151.6416
5622.930497 104.028 -152.7991
5663.676569 104.236 -154.0364
5704.717904 104.416 -155.3161
5746.056642 104.570 -156.6055
5787.694937 104.701 -157.8773
5829.634960 104.814 -159.1099
5871.878898 104.913 -160.2879
5914.428953 105.000 -161.4011
5957.287343 105.079 -162.4439
6000.456303 105.153 -163.4145
6043.938083 105.223 -164.3136
6087.734950 105.289 -165.1440
6131.849187 105.352 -165.9095
6176.283094 105.412 -166.6143
6221.038987 105.467 -167.2619
6266.119200 105.517 -167.8548
6311.526083 105.560 -168.3943
6357.262002 105.596 -168.8804
6403.329344 105.625 -169.3128
6449.730508 105.647 -169.6918
6496.467914 105.663 -170.0200
6543.543998 105.675 -170.3026
6590.961215 105.685 -170.5485
6638.722037 105.694 -170.7696
6686.828954 105.705 -170.9796
6735.284473 105.718 -171.1932
6784.091120 105.736 -171.4240
6833.251441 105.757 -171.6840
6882.767998 105.783 -171.9824
6932.643372 105.814 -172.3261
6982.880164 105.848 -172.7189
7033.480992 105.886 -173.1610
7084.448495 105.925 -173.6482
7135.785329 105.966 -174.1721
7187.494171 106.007 -174.7213
7239.577717 106.049 -175.2831
7292.038681 106.092 -175.8463
7344.879799 106.138 -176.4036
7398.103826 106.188 -176.9538
7451.713536 106.243 -177.5029
7505.711724 106.304 -178.0643
7560.101205 106.370 -178.6577
7614.884815 106.439 -179.3063
7670.065409 106.508 179.9659
7725.645865 106.573 179.1374
7781.629080 106.629 178.1922
7838.017972 106.670 177.1220
7894.815481 106.691 175.9271
7952.024569 106.686 174.6169
8009.648217 106.650 173.2103
8067.689429 106.578 171.7346
8126.151233 106.468 170.2255
8185.036674 106.317 168.7253
8244.348824 106.124 167.2815
8304.090774 105.890 165.9443
8364.265639 105.618 164.7633
8424.876556 105.312 163.7844
8485.926684 104.978 163.0455
8547.419207 104.625 162.5737
8609.357330 104.262 162.3821
8671.744282 103.898 162.4686
8734.583316 103.546 162.8159
8797.877707 103.215 163.3924
8861.630756 102.915 164.1546
8925.845785 102.655 165.0504
8990.526143 102.440 166.0227
9055.675202 102.274 167.0126
9121.296357 102.159 167.9631
9187.393031 102.091 168.8210
9253.968668 102.067 169.5389
9321.026740 102.081 170.0771
9388.570742 102.123 170.4036
9456.604196 102.186 170.4947
9525.130648 102.261 170.3345
9594.153671 102.339 169.9140
9663.676863 102.414 169.2299
9733.703850 102.479 168.2837
9804.238280 102.527 167.0801
9875.283832 102.554 165.6274
9946.844210 102.556 163.9360
10018.923143 102.529 162.0196
10091.524390 102.471 159.8948
10164.651736 102.377 157.5817
10238.308993 102.247 155.1037
10312.500000 102.078 152.4872
10387.228626 101.869 149.7612
10462.498767 101.619 146.9552
10538.314345 101.328 144.0994
10614.679315 100.997 141.2226
10691.597657 100.625 138.3524
10769.073381 100.212 135.5145
10847.110526 99.761 132.7325
10925.713161 99.270 130.0280
11004.885382 98.741 127.4207
11084.631318 98.174 124.9287
11164.955126 97.569 122.5679
11245.860993 96.927 120.3528
11327.353138 96.249 118.2954
11409.435808 95.535 116.4059
11492.113283 94.786 114.6912
11575.389873 94.005 113.1539
11659.269920 93.194 111.7906
11743.757796 92.357 110.5880
11828.857906 91.500 109.5198
11914.574686 90.632 108.5405
12000.912606 89.766 107.5789
12087.876166 88.921 106.5296
12175.469900 88.127 105.2454
12263.698373 87.423 103.5301
12352.566187 86.856 101.1367
12442.077974 86.478 97.7739
12532.238400 86.328 93.1277
12623.052165 86.417 86.9076
12714.524005 86.726 78.9285
12806.658687 87.208 69.2261
12899.461015 87.807 58.1495
12992.935827 88.471 46.3268
13087.087996 89.158 34.4536
13181.922430 89.833 23.0495
13277.444074 90.476 12.3583
13373.657907 91.067 2.4053
13470.568945 91.597 -6.8930
13568.182241 92.055 -15.6473
13666.502883 92.437 -23.9544
13765.535996 92.740 -31.8837
13865.286744 92.962 -39.4780
13965.760328 93.102 -46.7585
14066.961984 93.164 -53.7324
14168.896989 93.151 -60.3982
14271.570658 93.067 -66.7517
14374.988342 92.919 -72.7904
14479.155433 92.714 -78.5155
14584.077362 92.458 -83.9337
14689.759598 92.158 -89.0562
14796.207652 91.820 -93.8970
14903.427072 91.448 -98.4713
15011.423448 91.047 -102.7943
15120.202410 90.621 -106.8799
15229.769630 90.171 -110.7421
15340.130819 89.701 -114.3949
15451.291730 89.212 -117.8521
15563.258160 88.705 -121.1271
15676.035944 88.181 -124.2310
15789.630962 87.640 -127.1699
15904.049137 87.080 -129.9432
16019.296433 86.501 -132.5425
16135.378859 85.901 -134.9518
16252.302465 85.280 -137.1486
16370.073348 84.640 -139.1048
16488.697648 83.984 -140.7870
16608.181548 83.319 -142.1543
16728.531278 82.654 -143.1534
16849.753112 82.004 -143.7145
16971.853368 81.391 -143.7469
17094.838414 80.846 -143.1425
17218.714660 80.405 -141.7939
17343.488565 80.112 -139.6407
17469.166632 80.002 -136.7494
17595.755415 80.093 -133.4003
17723.261512 80.374 -130.1091
17851.691571 80.812 -127.5090
17981.052287 81.358 -126.1448
18111.350404 81.960 -126.3289
18242.592715 82.577 -128.1379
18374.786062 83.175 -131.4973
18507.937336 83.731 -136.2695
18642.053479 84.230 -142.3102
18777.141484 84.661 -149.4900
18913.208391 85.020 -157.6903
19050.261296 85.304 -166.7789
19188.307342 85.517 -176.5645
19327.353727 85.663 173.2640
19467.407699 85.753 163.1915
19608.476560 85.798 153.8748
19750.567664 85.814 146.0588
19893.688419 85.814 140.4301
20037.846286 85.810 137.4887
