* Measurement data measured by REW V5.31.3
* Source: EXCL: Headset (USB-C to 3.5mm Headphone Jack Adapter), MICROPHONE (Master Volume), 0, volume: 0.260
* Format: 256k Log Swept Sine, 1 sweep at -12.0 dBFS with no timing reference
* Dated: Feb 9, 2025 9:24:43 PM
* REW Settings:
*  C-weighting compensation: Off
*  Target level: 75.0 dB
* Note: ; 
* Measurement: KSC75 R2
* Smoothing: 1/6 octave
* Frequency Step: 96 ppo
* Start Frequency: 20.0 Hz
*
* Freq(Hz) SPL(dB) Phase(degrees)
20.141602 86.714 3.0090
20.287556 86.736 2.7809
20.434568 86.763 2.4765
20.582645 86.792 2.1055
20.731796 86.819 1.6785
20.882027 86.840 1.2065
21.033346 86.853 0.6997
21.185763 86.857 0.1676
21.339284 86.850 -0.3817
21.493917 86.835 -0.9416
21.649671 86.811 -1.5070
21.806553 86.781 -2.0745
21.964572 86.747 -2.6418
22.123737 86.711 -3.2079
22.284054 86.676 -3.7727
22.445534 86.645 -4.3368
22.608183 86.619 -4.9008
22.772012 86.601 -5.4655
22.937027 86.592 -6.0316
23.103238 86.593 -6.5989
23.270654 86.605 -7.1671
23.439282 86.629 -7.7349
23.609133 86.664 -8.3005
23.780215 86.711 -8.8619
23.952536 86.770 -9.4167
24.126106 86.841 -9.9623
24.300934 86.923 -10.4968
24.477028 87.015 -11.0188
24.654399 87.118 -11.5280
24.833055 87.228 -12.0250
25.013005 87.346 -12.5118
25.194260 87.470 -12.9916
25.376828 87.598 -13.4687
25.560719 87.729 -13.9478
25.745942 87.860 -14.4340
25.932508 87.990 -14.9320
26.120426 88.117 -15.4457
26.309705 88.241 -15.9775
26.500356 88.359 -16.5285
26.692388 88.471 -17.0982
26.885812 88.576 -17.6845
27.080638 88.675 -18.2844
27.276876 88.768 -18.8940
27.474535 88.857 -19.5095
27.673627 88.942 -20.1273
27.874161 89.027 -20.7444
28.076149 89.113 -21.3590
28.279600 89.204 -21.9698
28.484526 89.302 -22.5768
28.690937 89.410 -23.1800
28.898843 89.530 -23.7798
29.108256 89.663 -24.3767
29.319186 89.812 -24.9707
29.531645 89.975 -25.5616
29.745644 90.151 -26.1490
29.961193 90.339 -26.7324
30.178304 90.535 -27.3115
30.396989 90.735 -27.8866
30.617258 90.936 -28.4582
30.839123 91.132 -29.0272
31.062596 91.319 -29.5950
31.287688 91.492 -30.1628
31.514412 91.648 -30.7318
31.742778 91.782 -31.3027
31.972800 91.892 -31.8757
32.204488 91.975 -32.4504
32.437855 92.031 -33.0260
32.672913 92.058 -33.6013
32.909674 92.058 -34.1750
33.148151 92.031 -34.7455
33.388356 91.981 -35.3114
33.630302 91.910 -35.8714
33.874001 91.821 -36.4243
34.119466 91.719 -36.9699
34.366710 91.609 -37.5084
34.615745 91.495 -38.0413
34.866585 91.382 -38.5710
35.119243 91.275 -39.1011
35.373731 91.179 -39.6357
35.630064 91.098 -40.1790
35.888254 91.034 -40.7341
36.148315 90.992 -41.3028
36.410261 90.971 -41.8847
36.674104 90.973 -42.4774
36.939860 90.999 -43.0766
37.207542 91.049 -43.6768
37.477163 91.123 -44.2729
37.748738 91.219 -44.8601
38.022281 91.338 -45.4355
38.297806 91.478 -45.9980
38.575327 91.639 -46.5481
38.854860 91.819 -47.0881
39.136419 92.017 -47.6210
39.420017 92.231 -48.1507
39.705671 92.461 -48.6807
39.993395 92.706 -49.2147
40.283203 92.964 -49.7561
40.575112 93.233 -50.3074
40.869136 93.514 -50.8705
41.165290 93.803 -51.4465
41.463591 94.100 -52.0350
41.764053 94.402 -52.6348
42.066693 94.707 -53.2437
42.371525 95.014 -53.8589
42.678567 95.318 -54.4774
42.987834 95.620 -55.0964
43.299341 95.915 -55.7133
43.613106 96.202 -56.3261
43.929145 96.479 -56.9330
44.247473 96.743 -57.5328
44.568109 96.994 -58.1242
44.891068 97.230 -58.7064
45.216367 97.450 -59.2790
45.544023 97.652 -59.8426
45.874054 97.837 -60.3986
46.206476 98.005 -60.9491
46.541307 98.154 -61.4972
46.878565 98.286 -62.0461
47.218266 98.401 -62.5983
47.560429 98.500 -63.1555
47.905072 98.584 -63.7178
48.252212 98.654 -64.2842
48.601867 98.713 -64.8528
48.954056 98.761 -65.4215
49.308798 98.802 -65.9881
49.666109 98.836 -66.5513
50.026010 98.866 -67.1100
50.388520 98.894 -67.6642
50.753656 98.920 -68.2144
51.121437 98.947 -68.7616
51.491884 98.975 -69.3073
51.865016 99.004 -69.8534
52.240851 99.037 -70.4016
52.619410 99.073 -70.9533
53.000712 99.113 -71.5093
53.384777 99.155 -72.0699
53.771625 99.201 -72.6347
54.161276 99.249 -73.2034
54.553751 99.298 -73.7755
54.949070 99.347 -74.3507
55.347254 99.395 -74.9289
55.748323 99.441 -75.5103
56.152298 99.484 -76.0949
56.559201 99.523 -76.6829
56.969052 99.559 -77.2744
57.381873 99.591 -77.8693
57.797686 99.619 -78.4672
58.216512 99.645 -79.0677
58.638373 99.667 -79.6703
59.063291 99.688 -80.2749
59.491288 99.707 -80.8817
59.922386 99.727 -81.4915
60.356608 99.746 -82.1056
60.793977 99.767 -82.7251
61.234515 99.789 -83.3505
61.678246 99.811 -83.9819
62.125192 99.834 -84.6186
62.575377 99.859 -85.2596
63.028824 99.884 -85.9041
63.485557 99.911 -86.5510
63.945599 99.939 -87.1999
64.408975 99.969 -87.8504
64.875709 100.001 -88.5023
65.345825 100.034 -89.1554
65.819348 100.070 -89.8096
66.296302 100.108 -90.4648
66.776713 100.148 -91.1210
67.260604 100.191 -91.7780
67.748002 100.237 -92.4360
68.238932 100.285 -93.0950
68.733420 100.336 -93.7552
69.231490 100.389 -94.4167
69.733170 100.443 -95.0797
70.238485 100.499 -95.7442
70.747463 100.556 -96.4106
71.260128 100.615 -97.0793
71.776508 100.674 -97.7506
72.296630 100.735 -98.4250
72.820521 100.796 -99.1026
73.348209 100.858 -99.7838
73.879720 100.920 -100.4686
74.415083 100.982 -101.1571
74.954326 101.043 -101.8495
75.497475 101.104 -102.5458
76.044561 101.165 -103.2458
76.595612 101.223 -103.9492
77.150655 101.280 -104.6557
77.709720 101.334 -105.3647
78.272837 101.386 -106.0756
78.840034 101.434 -106.7882
79.411342 101.478 -107.5022
79.986789 101.518 -108.2176
80.566406 101.554 -108.9346
81.150224 101.586 -109.6532
81.738272 101.614 -110.3735
82.330581 101.640 -111.0955
82.927182 101.663 -111.8191
83.528107 101.687 -112.5442
84.133386 101.712 -113.2705
84.743051 101.740 -113.9979
85.357134 101.775 -114.7261
85.975667 101.820 -115.4549
86.598682 101.878 -116.1842
87.226212 101.952 -116.9137
87.858289 102.045 -117.6434
88.494946 102.160 -118.3731
89.136217 102.297 -119.1029
89.782135 102.457 -119.8329
90.432733 102.638 -120.5634
91.088046 102.839 -121.2946
91.748108 103.054 -122.0265
92.412952 103.280 -122.7589
93.082615 103.512 -123.4913
93.757130 103.743 -124.2232
94.436533 103.968 -124.9543
95.120859 104.184 -125.6841
95.810144 104.386 -126.4126
96.504423 104.571 -127.1397
97.203734 104.739 -127.8655
97.908112 104.887 -128.5899
98.617595 105.018 -129.3131
99.332219 105.131 -130.0348
100.052021 105.230 -130.7550
100.777039 105.314 -131.4733
101.507311 105.388 -132.1894
102.242875 105.453 -132.9031
102.983769 105.510 -133.6140
103.730032 105.561 -134.3218
104.481702 105.607 -135.0263
105.238820 105.647 -135.7273
106.001424 105.680 -136.4246
106.769554 105.706 -137.1183
107.543250 105.723 -137.8083
108.322553 105.729 -138.4946
109.107503 105.722 -139.1772
109.898141 105.702 -139.8559
110.694508 105.668 -140.5304
111.496646 105.619 -141.2005
112.304596 105.556 -141.8655
113.118402 105.481 -142.5251
113.938104 105.395 -143.1786
114.763747 105.300 -143.8260
115.595372 105.199 -144.4671
116.433024 105.094 -145.1020
117.276746 104.987 -145.7308
118.126581 104.880 -146.3534
118.982575 104.774 -146.9696
119.844772 104.670 -147.5793
120.713217 104.569 -148.1824
121.587954 104.471 -148.7787
122.469031 104.374 -149.3683
123.356492 104.277 -149.9514
124.250384 104.181 -150.5282
125.150753 104.082 -151.0988
126.057647 103.979 -151.6634
126.971113 103.872 -152.2221
127.891198 103.759 -152.7753
128.817950 103.639 -153.3231
129.751418 103.513 -153.8658
130.691651 103.380 -154.4038
131.638696 103.241 -154.9372
132.592604 103.099 -155.4665
133.553425 102.955 -155.9917
134.521208 102.811 -156.5132
135.496004 102.671 -157.0311
136.477864 102.539 -157.5452
137.466839 102.417 -158.0555
138.462981 102.309 -158.5619
139.466340 102.217 -159.0641
140.476971 102.143 -159.5621
141.494925 102.088 -160.0559
142.520256 102.051 -160.5455
143.553016 102.031 -161.0311
144.593260 102.023 -161.5126
145.641043 102.025 -161.9902
146.696418 102.033 -162.4640
147.759441 102.043 -162.9343
148.830166 102.051 -163.4013
149.908651 102.055 -163.8653
150.994951 102.052 -164.3265
152.089123 102.043 -164.7853
153.191223 102.025 -165.2419
154.301310 102.001 -165.6965
155.419441 101.971 -166.1491
156.545674 101.937 -166.5999
157.680069 101.901 -167.0490
158.822683 101.863 -167.4963
159.973578 101.827 -167.9419
161.132813 101.792 -168.3861
162.300447 101.760 -168.8291
163.476543 101.731 -169.2711
164.661162 101.705 -169.7122
165.854364 101.683 -170.1528
167.056213 101.664 -170.5927
168.266772 101.649 -171.0322
169.486102 101.638 -171.4713
170.714268 101.631 -171.9102
171.951334 101.628 -172.3489
173.197364 101.628 -172.7876
174.452424 101.633 -173.2262
175.716578 101.640 -173.6647
176.989893 101.650 -174.1028
178.272434 101.662 -174.5399
179.564270 101.674 -174.9754
180.865467 101.685 -175.4083
182.176092 101.694 -175.8375
183.496216 101.700 -176.2618
184.825905 101.702 -176.6801
186.165229 101.700 -177.0912
187.514259 101.693 -177.4941
188.873065 101.682 -177.8878
190.241717 101.667 -178.2717
191.620287 101.649 -178.6453
193.008847 101.629 -179.0081
194.407468 101.607 -179.3601
195.816225 101.583 -179.7010
197.235190 101.559 179.9688
198.664438 101.535 179.6494
200.104042 101.510 179.3403
201.554078 101.484 179.0411
203.014622 101.457 178.7513
204.485750 101.428 178.4707
205.967538 101.397 178.1990
207.460064 101.363 177.9362
208.963405 101.327 177.6823
210.477640 101.287 177.4371
212.002848 101.245 177.2005
213.539108 101.201 176.9719
215.086500 101.154 176.7507
216.645105 101.106 176.5359
218.215005 101.056 176.3269
219.796281 101.005 176.1228
221.389015 100.953 175.9232
222.993292 100.898 175.7274
224.609193 100.842 175.5352
226.236804 100.782 175.3463
227.876209 100.718 175.1608
229.527494 100.650 174.9783
231.190745 100.577 174.7989
232.866048 100.500 174.6224
234.553491 100.418 174.4486
236.253163 100.331 174.2775
237.965150 100.241 174.1087
239.689544 100.149 173.9422
241.426433 100.054 173.7777
243.175909 99.959 173.6151
244.938062 99.864 173.4545
246.712984 99.769 173.2956
248.500768 99.677 173.1384
250.301507 99.587 172.9831
252.115295 99.501 172.8295
253.942226 99.419 172.6776
255.782396 99.341 172.5275
257.635901 99.269 172.3792
259.502837 99.203 172.2327
261.383301 99.142 172.0881
263.277392 99.088 171.9453
265.185209 99.041 171.8044
267.106850 99.000 171.6653
269.042417 98.966 171.5280
270.992009 98.938 171.3924
272.955729 98.914 171.2586
274.933678 98.896 171.1266
276.925961 98.882 170.9963
278.932681 98.871 170.8677
280.953942 98.862 170.7411
282.989850 98.857 170.6163
285.040511 98.853 170.4935
287.106032 98.853 170.3727
289.186521 98.856 170.2541
291.282086 98.863 170.1376
293.392836 98.875 170.0232
295.518881 98.893 169.9110
297.660333 98.917 169.8010
299.817302 98.946 169.6934
301.989902 98.981 169.5880
304.178245 99.019 169.4851
306.382446 99.060 169.3847
308.602620 99.101 169.2869
310.838882 99.141 169.1916
313.091348 99.178 169.0989
315.360137 99.210 169.0088
317.645367 99.236 168.9211
319.947156 99.255 168.8358
322.265625 99.266 168.7528
324.600895 99.268 168.6720
326.953086 99.260 168.5933
329.322323 99.243 168.5167
331.708729 99.215 168.4420
334.112427 99.177 168.3691
336.533543 99.128 168.2980
338.972204 99.070 168.2287
341.428536 99.002 168.1612
343.902668 98.926 168.0956
346.394729 98.842 168.0323
348.904848 98.753 167.9711
351.433156 98.660 167.9124
353.979786 98.566 167.8562
356.544869 98.472 167.8026
359.128540 98.382 167.7514
361.730934 98.298 167.7028
364.352185 98.223 167.6565
366.992431 98.160 167.6125
369.651810 98.112 167.5705
372.330459 98.081 167.5304
375.028519 98.067 167.4920
377.746130 98.070 167.4552
380.483434 98.092 167.4199
383.240574 98.129 167.3860
386.017693 98.180 167.3535
388.814937 98.242 167.3223
391.632450 98.313 167.2927
394.470380 98.391 167.2645
397.328875 98.471 167.2378
400.208084 98.552 167.2125
403.108157 98.633 167.1886
406.029245 98.712 167.1661
408.971500 98.788 167.1450
411.935076 98.860 167.1252
414.920127 98.930 167.1069
417.926810 98.997 167.0902
420.955280 99.062 167.0750
424.005695 99.126 167.0612
427.078215 99.190 167.0491
430.173000 99.253 167.0385
433.290211 99.317 167.0295
436.430010 99.382 167.0222
439.592562 99.446 167.0167
442.778031 99.508 167.0131
445.986583 99.568 167.0114
449.218386 99.625 167.0117
452.473607 99.675 167.0137
455.752418 99.719 167.0174
459.054987 99.754 167.0228
462.381489 99.780 167.0297
465.732096 99.795 167.0381
469.106983 99.800 167.0479
472.506325 99.795 167.0590
475.930301 99.780 167.0714
479.379088 99.756 167.0850
482.852867 99.724 167.0997
486.351817 99.685 167.1157
489.876123 99.641 167.1328
493.425968 99.591 167.1511
497.001536 99.537 167.1708
500.603014 99.480 167.1920
504.230589 99.419 167.2147
507.884452 99.355 167.2391
511.564792 99.289 167.2654
515.271802 99.219 167.2938
519.005673 99.147 167.3244
522.766602 99.074 167.3572
526.554785 99.001 167.3923
530.370418 98.928 167.4296
534.213700 98.860 167.4689
538.084833 98.796 167.5102
541.984018 98.739 167.5530
545.911457 98.690 167.5974
549.867357 98.651 167.6431
553.851922 98.621 167.6901
557.865362 98.600 167.7382
561.907884 98.586 167.7874
565.979700 98.579 167.8378
570.081022 98.575 167.8893
574.212064 98.573 167.9422
578.373042 98.571 167.9965
582.564171 98.567 168.0524
586.785671 98.559 168.1100
591.037762 98.546 168.1692
595.320665 98.528 168.2301
599.634604 98.502 168.2928
603.979804 98.469 168.3573
608.356491 98.430 168.4236
612.764893 98.383 168.4920
617.205240 98.331 168.5624
621.677763 98.275 168.6348
626.182696 98.215 168.7094
630.720274 98.153 168.7861
635.290733 98.092 168.8651
639.894312 98.032 168.9463
644.531250 97.976 169.0297
649.201789 97.926 169.1153
653.906173 97.883 169.2029
658.644647 97.847 169.2926
663.417457 97.818 169.3842
668.224854 97.796 169.4774
673.067086 97.781 169.5722
677.944408 97.770 169.6684
682.857073 97.762 169.7657
687.805336 97.755 169.8642
692.789457 97.748 169.9638
697.809695 97.740 170.0645
702.866312 97.729 170.1663
707.959571 97.714 170.2692
713.089738 97.696 170.3733
718.257080 97.673 170.4786
723.461867 97.645 170.5849
728.704370 97.613 170.6921
733.984862 97.578 170.8003
739.303619 97.539 170.9092
744.660918 97.499 171.0187
750.057038 97.456 171.1287
755.492260 97.412 171.2392
760.966869 97.368 171.3503
766.481148 97.322 171.4622
772.035387 97.275 171.5752
777.629873 97.226 171.6896
783.264900 97.175 171.8058
788.940760 97.121 171.9242
794.657750 97.063 172.0449
800.416168 97.000 172.1681
806.216313 96.931 172.2939
812.058489 96.857 172.4224
817.943000 96.776 172.5535
823.870152 96.689 172.6871
829.840255 96.596 172.8233
835.853619 96.498 172.9619
841.910559 96.395 173.1025
848.011390 96.290 173.2451
854.156430 96.182 173.3892
860.346000 96.072 173.5347
866.580422 95.963 173.6812
872.860020 95.855 173.8284
879.185124 95.750 173.9764
885.556062 95.648 174.1249
891.973166 95.550 174.2741
898.436771 95.459 174.4242
904.947215 95.374 174.5753
911.504835 95.297 174.7280
918.109975 95.229 174.8827
924.762978 95.170 175.0399
931.464192 95.121 175.1999
938.213966 95.082 175.3632
945.012651 95.053 175.5298
951.860602 95.035 175.6998
958.758176 95.026 175.8729
965.705733 95.026 176.0486
972.703635 95.034 176.2262
979.752246 95.049 176.4050
986.851935 95.070 176.5844
994.003071 95.097 176.7639
1001.206027 95.130 176.9433
1008.461179 95.167 177.1227
1015.768904 95.209 177.3025
1023.129584 95.257 177.4832
1030.543603 95.311 177.6653
1038.011347 95.371 177.8494
1045.533205 95.438 178.0357
1053.109569 95.513 178.2245
1060.740836 95.596 178.4157
1068.427401 95.686 178.6094
1076.169666 95.783 178.8051
1083.968035 95.886 179.0025
1091.822915 95.993 179.2010
1099.734713 96.103 179.3999
1107.703844 96.214 179.5987
1115.730723 96.323 179.7968
1123.815768 96.430 179.9935
1131.959400 96.532 -179.8114
1140.162045 96.629 -179.6184
1148.424129 96.720 -179.4277
1156.746083 96.804 -179.2395
1165.128342 96.884 -179.0539
1173.571343 96.958 -178.8705
1182.075524 97.029 -178.6890
1190.641331 97.097 -178.5088
1199.269209 97.163 -178.3290
1207.959608 97.229 -178.1490
1216.712981 97.294 -177.9677
1225.529785 97.360 -177.7844
1234.410479 97.427 -177.5985
1243.355526 97.493 -177.4094
1252.365393 97.559 -177.2167
1261.440549 97.624 -177.0205
1270.581467 97.687 -176.8207
1279.788624 97.748 -176.6174
1289.062500 97.806 -176.4107
1298.403578 97.861 -176.2006
1307.812346 97.913 -175.9870
1317.289293 97.961 -175.7695
1326.834914 98.008 -175.5478
1336.449707 98.051 -175.3217
1346.134173 98.093 -175.0907
1355.888816 98.133 -174.8545
1365.714145 98.171 -174.6130
1375.610673 98.209 -174.3662
1385.578915 98.245 -174.1143
1395.619391 98.280 -173.8578
1405.732624 98.314 -173.5977
1415.919142 98.349 -173.3354
1426.179476 98.383 -173.0724
1436.514160 98.419 -172.8107
1446.923734 98.455 -172.5523
1457.408740 98.494 -172.2992
1467.969724 98.535 -172.0529
1478.607238 98.579 -171.8143
1489.321836 98.626 -171.5834
1500.114076 98.677 -171.3594
1510.984521 98.731 -171.1408
1521.933737 98.788 -170.9259
1532.962297 98.849 -170.7128
1544.070773 98.912 -170.5001
1555.259747 98.978 -170.2868
1566.529800 99.047 -170.0725
1577.881521 99.117 -169.8570
1589.315501 99.189 -169.6406
1600.832336 99.261 -169.4235
1612.432627 99.334 -169.2058
1624.116978 99.406 -168.9872
1635.886000 99.479 -168.7676
1647.740304 99.552 -168.5465
1659.680509 99.626 -168.3237
1671.707238 99.700 -168.0988
1683.821118 99.775 -167.8721
1696.022780 99.852 -167.6441
1708.312860 99.931 -167.4158
1720.692000 100.012 -167.1885
1733.160843 100.095 -166.9637
1745.720041 100.180 -166.7428
1758.370248 100.267 -166.5269
1771.112124 100.355 -166.3170
1783.946332 100.444 -166.1135
1796.873543 100.533 -165.9162
1809.894429 100.621 -165.7246
1823.009670 100.709 -165.5377
1836.219950 100.795 -165.3547
1849.525956 100.881 -165.1747
1862.928384 100.965 -164.9975
1876.427931 101.049 -164.8231
1890.025301 101.132 -164.6521
1903.721204 101.215 -164.4847
1917.516352 101.297 -164.3211
1931.411466 101.380 -164.1611
1945.407270 101.462 -164.0040
1959.504493 101.543 -163.8499
1973.703870 101.623 -163.6991
1988.006142 101.701 -163.5528
2002.412054 101.776 -163.4132
2016.922357 101.847 -163.2827
2031.537808 101.914 -163.1636
2046.259169 101.975 -163.0585
2061.087206 102.030 -162.9693
2076.022694 102.080 -162.8970
2091.066410 102.122 -162.8421
2106.219139 102.159 -162.8045
2121.481671 102.190 -162.7833
2136.854802 102.217 -162.7781
2152.339333 102.242 -162.7886
2167.936071 102.265 -162.8151
2183.645829 102.288 -162.8591
2199.469427 102.313 -162.9227
2215.407689 102.341 -163.0087
2231.461446 102.373 -163.1201
2247.631536 102.410 -163.2597
2263.918800 102.451 -163.4295
2280.324089 102.496 -163.6314
2296.848258 102.546 -163.8668
2313.492167 102.599 -164.1374
2330.256685 102.656 -164.4445
2347.142685 102.715 -164.7894
2364.151049 102.775 -165.1733
2381.282662 102.837 -165.5969
2398.538418 102.898 -166.0600
2415.919216 102.958 -166.5617
2433.425962 103.017 -167.1002
2451.059570 103.075 -167.6739
2468.820958 103.131 -168.2819
2486.711052 103.186 -168.9242
2504.730786 103.239 -169.6014
2522.881098 103.291 -170.3138
2541.162934 103.342 -171.0603
2559.577248 103.390 -171.8390
2578.125000 103.437 -172.6467
2596.807157 103.483 -173.4793
2615.624692 103.527 -174.3323
2634.578586 103.571 -175.2011
2653.669829 103.615 -176.0814
2672.899414 103.660 -176.9693
2692.268345 103.705 -177.8610
2711.777632 103.752 -178.7528
2731.428290 103.798 -179.6402
2751.221345 103.844 179.4810
2771.157829 103.889 178.6150
2791.238781 103.933 177.7643
2811.465248 103.972 176.9308
2831.838284 104.007 176.1162
2852.358952 104.034 175.3235
2873.028321 104.053 174.5568
2893.847468 104.060 173.8214
2914.817480 104.055 173.1232
2935.939449 104.035 172.4691
2957.214476 104.002 171.8661
2978.643672 103.954 171.3209
3000.228152 103.891 170.8387
3021.969041 103.815 170.4225
3043.867475 103.726 170.0726
3065.924593 103.627 169.7869
3088.141547 103.516 169.5622
3110.519493 103.396 169.3964
3133.059600 103.266 169.2902
3155.763041 103.127 169.2478
3178.631001 102.980 169.2757
3201.664672 102.826 169.3805
3224.865254 102.667 169.5679
3248.233957 102.506 169.8412
3271.771999 102.343 170.2018
3295.480608 102.182 170.6486
3319.361019 102.024 171.1794
3343.414477 101.871 171.7915
3367.642236 101.724 172.4820
3392.045560 101.584 173.2484
3416.625721 101.454 174.0891
3441.383999 101.335 175.0035
3466.321686 101.228 175.9913
3491.440082 101.137 177.0513
3516.740496 101.063 178.1806
3542.224247 101.010 179.3736
3567.892664 100.980 -179.3780
3593.747085 100.977 -178.0854
3619.788858 101.003 -176.7630
3646.019340 101.060 -175.4283
3672.439900 101.150 -174.1020
3699.051913 101.275 -172.8076
3725.856768 101.434 -171.5706
3752.855862 101.626 -170.4185
3780.050603 101.849 -169.3800
3807.442408 102.101 -168.4850
3835.032705 102.377 -167.7634
3862.822933 102.673 -167.2437
3890.814540 102.983 -166.9503
3919.008986 103.301 -166.9021
3947.407741 103.619 -167.1107
3976.012284 103.930 -167.5807
4004.824108 104.229 -168.3085
4033.844715 104.508 -169.2831
4063.075616 104.763 -170.4858
4092.518337 104.988 -171.8926
4122.174412 105.179 -173.4753
4152.045387 105.333 -175.2026
4182.132820 105.448 -177.0408
4212.438278 105.522 -178.9548
4242.963342 105.554 179.0907
4273.709604 105.544 177.1305
4304.678665 105.492 175.1975
4335.872141 105.400 173.3232
4367.291658 105.269 171.5375
4398.938854 105.100 169.8686
4430.815378 104.894 168.3440
4462.922893 104.653 166.9906
4495.263072 104.380 165.8357
4527.837601 104.076 164.9071
4560.648179 103.743 164.2336
4593.696515 103.384 163.8457
4626.984334 103.002 163.7774
4660.513370 102.602 164.0674
4694.285371 102.188 164.7593
4728.302098 101.766 165.9013
4762.565324 101.346 167.5420
4797.076835 100.937 169.7237
4831.838432 100.555 172.4719
4866.851925 100.215 175.7803
4902.119140 99.935 179.5966
4937.641916 99.731 -176.1872
4973.422105 99.617 -171.7309
5009.461572 99.601 -167.2275
5045.762195 99.684 -162.8724
5082.325868 99.859 -158.8339
5119.154496 100.115 -155.2341
5156.250000 100.437 -152.1470
5193.614313 100.807 -149.6054
5231.249383 101.209 -147.6122
5269.157173 101.629 -146.1491
5307.339658 102.053 -145.1836
5345.798829 102.468 -144.6724
5384.536691 102.867 -144.5642
5423.555263 103.241 -144.8024
5462.856580 103.586 -145.3278
5502.442691 103.900 -146.0818
5542.315659 104.180 -147.0084
5582.477563 104.429 -148.0571
5622.930497 104.648 -149.1842
5663.676569 104.841 -150.3532
5704.717904 105.010 -151.5352
5746.056642 105.161 -152.7079
5787.694937 105.295 -153.8553
5829.634960 105.418 -154.9660
5871.878898 105.531 -156.0331
5914.428953 105.639 -157.0528
5957.287343 105.742 -158.0247
6000.456303 105.842 -158.9505
6043.938083 105.941 -159.8340
6087.734950 106.036 -160.6804
6131.849187 106.129 -161.4950
6176.283094 106.217 -162.2829
6221.038987 106.300 -163.0479
6266.119200 106.374 -163.7921
6311.526083 106.438 -164.5155
6357.262002 106.492 -165.2160
6403.329344 106.533 -165.8902
6449.730508 106.561 -166.5336
6496.467914 106.577 -167.1420
6543.543998 106.582 -167.7124
6590.961215 106.578 -168.2440
6638.722037 106.566 -168.7385
6686.828954 106.549 -169.2008
6735.284473 106.529 -169.6376
6784.091120 106.508 -170.0574
6833.251441 106.489 -170.4689
6882.767998 106.471 -170.8805
6932.643372 106.457 -171.2999
6982.880164 106.447 -171.7334
7033.480992 106.441 -172.1850
7084.448495 106.437 -172.6548
7135.785329 106.437 -173.1381
7187.494171 106.438 -173.6252
7239.577717 106.440 -174.1033
7292.038681 106.445 -174.5591
7344.879799 106.454 -174.9828
7398.103826 106.469 -175.3707
7451.713536 106.492 -175.7282
7505.711724 106.524 -176.0700
7560.101205 106.566 -176.4199
7614.884815 106.617 -176.8078
7670.065409 106.674 -177.2662
7725.645865 106.733 -177.8254
7781.629080 106.788 -178.5097
7838.017972 106.833 -179.3340
7894.815481 106.861 179.6980
7952.024569 106.866 178.5938
8009.648217 106.841 177.3720
8067.689429 106.783 176.0615
8126.151233 106.686 174.7000
8185.036674 106.549 173.3322
8244.348824 106.370 172.0084
8304.090774 106.150 170.7816
8364.265639 105.891 169.7055
8424.876556 105.598 168.8306
8485.926684 105.277 168.2012
8547.419207 104.936 167.8514
8609.357330 104.584 167.8015
8671.744282 104.233 168.0551
8734.583316 103.895 168.5969
8797.877707 103.581 169.3927
8861.630756 103.304 170.3915
8925.845785 103.071 171.5294
8990.526143 102.890 172.7358
9055.675202 102.763 173.9397
9121.296357 102.690 175.0757
9187.393031 102.668 176.0881
9253.968668 102.690 176.9324
9321.026740 102.749 177.5751
9388.570742 102.836 177.9927
9456.604196 102.944 178.1685
9525.130648 103.064 178.0920
9594.153671 103.189 177.7557
9663.676863 103.313 177.1550
9733.703850 103.431 176.2871
9804.238280 103.536 175.1507
9875.283832 103.624 173.7469
9946.844210 103.692 172.0795
10018.923143 103.735 170.1565
10091.524390 103.749 167.9903
10164.651736 103.730 165.5991
10238.308993 103.674 163.0070
10312.500000 103.579 160.2433
10387.228626 103.442 157.3422
10462.498767 103.261 154.3406
10538.314345 103.036 151.2769
10614.679315 102.766 148.1879
10691.597657 102.453 145.1082
10769.073381 102.097 142.0679
10847.110526 101.701 139.0927
10925.713161 101.267 136.2029
11004.885382 100.796 133.4140
11084.631318 100.291 130.7370
11164.955126 99.752 128.1788
11245.860993 99.182 125.7437
11327.353138 98.581 123.4327
11409.435808 97.951 121.2444
11492.113283 97.293 119.1750
11575.389873 96.607 117.2175
11659.269920 95.897 115.3618
11743.757796 95.164 113.5940
11828.857906 94.410 111.8962
11914.574686 93.638 110.2468
12000.912606 92.852 108.6205
12087.876166 92.055 106.9891
12175.469900 91.254 105.3198
12263.698373 90.455 103.5733
12352.566187 89.670 101.6986
12442.077974 88.916 99.6265
12532.238400 88.216 97.2615
12623.052165 87.599 94.4756
12714.524005 87.101 91.1081
12806.658687 86.754 86.9755
12899.461015 86.580 81.8927
12992.935827 86.583 75.7097
13087.087996 86.743 68.3542
13181.922430 87.024 59.8727
13277.444074 87.385 50.4490
13373.657907 87.782 40.3813
13470.568945 88.183 30.0183
13568.182241 88.560 19.6821
13666.502883 88.894 9.6157
13765.535996 89.170 -0.0299
13865.286744 89.383 -9.1780
13965.760328 89.526 -17.8004
14066.961984 89.598 -25.8947
14168.896989 89.602 -33.4704
14271.570658 89.541 -40.5417
14374.988342 89.419 -47.1255
14479.155433 89.243 -53.2402
14584.077362 89.020 -58.9070
14689.759598 88.757 -64.1493
14796.207652 88.461 -68.9927
14903.427072 88.138 -73.4648
15011.423448 87.796 -77.5954
15120.202410 87.439 -81.4152
15229.769630 87.072 -84.9569
15340.130819 86.700 -88.2545
15451.291730 86.325 -91.3420
15563.258160 85.949 -94.2520
15676.035944 85.573 -97.0138
15789.630962 85.195 -99.6527
15904.049137 84.815 -102.1893
16019.296433 84.432 -104.6403
16135.378859 84.045 -107.0195
16252.302465 83.652 -109.3378
16370.073348 83.253 -111.6015
16488.697648 82.847 -113.8093
16608.181548 82.434 -115.9482
16728.531278 82.013 -117.9885
16849.753112 81.588 -119.8798
16971.853368 81.163 -121.5487
17094.838414 80.750 -122.9005
17218.714660 80.369 -123.8269
17343.488565 80.048 -124.2272
17469.166632 79.821 -124.0441
17595.755415 79.722 -123.3177
17723.261512 79.778 -122.2369
17851.691571 79.994 -121.1506
17981.052287 80.352 -120.5052
18111.350404 80.817 -120.7244
18242.592715 81.348 -122.1058
18374.786062 81.905 -124.7910
18507.937336 82.454 -128.8004
18642.053479 82.972 -134.0874
18777.141484 83.440 -140.5825
18913.208391 83.847 -148.2095
19050.261296 84.186 -156.8759
19188.307342 84.456 -166.4330
19327.353727 84.659 -176.6080
19467.407699 84.801 173.0751
19608.476560 84.891 163.3245
19750.567664 84.943 155.0012
19893.688419 84.968 148.9354
20037.846286 84.978 145.7448
