* Measurement data measured by REW V5.31.3
* Source: EXCL: Headset (USB-C to 3.5mm Headphone Jack Adapter), MICROPHONE (Master Volume), 0, volume: 0.260
* Format: 256k Log Swept Sine, 1 sweep at -12.0 dBFS with no timing reference
* Dated: Feb 10, 2025 1:49:04 PM
* REW Settings:
*  C-weighting compensation: Off
*  Target level: 75.0 dB
* Note: ; 
* Measurement: Maxwell R4
* Smoothing: 1/6 octave
* Frequency Step: 96 ppo
* Start Frequency: 20.0 Hz
*
* Freq(Hz) SPL(dB) Phase(degrees)
20.141602 97.530 35.5578
20.287556 97.591 35.0502
20.434568 97.670 34.3790
20.582645 97.761 33.5700
20.731796 97.859 32.6503
20.882027 97.959 31.6467
21.033346 98.056 30.5829
21.185763 98.147 29.4795
21.339284 98.231 28.3528
21.493917 98.306 27.2149
21.649671 98.373 26.0738
21.806553 98.431 24.9339
21.964572 98.484 23.7960
22.123737 98.531 22.6583
22.284054 98.577 21.5167
22.445534 98.621 20.3653
22.608183 98.667 19.1981
22.772012 98.716 18.0086
22.937027 98.769 16.7912
23.103238 98.827 15.5421
23.270654 98.891 14.2589
23.439282 98.962 12.9414
23.609133 99.039 11.5916
23.780215 99.125 10.2132
23.952536 99.218 8.8109
24.126106 99.318 7.3903
24.300934 99.426 5.9568
24.477028 99.541 4.5152
24.654399 99.662 3.0688
24.833055 99.788 1.6195
25.013005 99.918 0.1675
25.194260 100.050 -1.2887
25.376828 100.182 -2.7518
25.560719 100.311 -4.2254
25.745942 100.437 -5.7130
25.932508 100.556 -7.2181
26.120426 100.669 -8.7434
26.309705 100.774 -10.2906
26.500356 100.870 -11.8602
26.692388 100.959 -13.4516
26.885812 101.040 -15.0634
27.080638 101.114 -16.6932
27.276876 101.184 -18.3379
27.474535 101.250 -19.9941
27.673627 101.315 -21.6579
27.874161 101.381 -23.3251
28.076149 101.450 -24.9914
28.279600 101.524 -26.6521
28.484526 101.604 -28.3024
28.690937 101.693 -29.9379
28.898843 101.792 -31.5543
29.108256 101.901 -33.1483
29.319186 102.021 -34.7178
29.531645 102.152 -36.2619
29.745644 102.292 -37.7816
29.961193 102.440 -39.2791
30.178304 102.593 -40.7584
30.396989 102.747 -42.2240
30.617258 102.899 -43.6813
30.839123 103.044 -45.1348
31.062596 103.178 -46.5884
31.287688 103.296 -48.0445
31.514412 103.396 -49.5034
31.742778 103.472 -50.9636
31.972800 103.523 -52.4217
32.204488 103.546 -53.8731
32.437855 103.539 -55.3120
32.672913 103.503 -56.7326
32.909674 103.438 -58.1294
33.148151 103.345 -59.4976
33.388356 103.225 -60.8340
33.630302 103.082 -62.1364
33.874001 102.918 -63.4043
34.119466 102.738 -64.6383
34.366710 102.545 -65.8403
34.615745 102.344 -67.0127
34.866585 102.140 -68.1583
35.119243 101.937 -69.2802
35.373731 101.740 -70.3810
35.630064 101.553 -71.4627
35.888254 101.381 -72.5270
36.148315 101.226 -73.5747
36.410261 101.091 -74.6058
36.674104 100.979 -75.6203
36.939860 100.892 -76.6177
37.207542 100.830 -77.5978
37.477163 100.794 -78.5608
37.748738 100.785 -79.5071
38.022281 100.802 -80.4380
38.297806 100.844 -81.3548
38.575327 100.911 -82.2592
38.854860 101.002 -83.1528
39.136419 101.115 -84.0371
39.420017 101.250 -84.9130
39.705671 101.404 -85.7817
39.993395 101.578 -86.6446
40.283203 101.770 -87.5035
40.575112 101.977 -88.3610
40.869136 102.200 -89.2210
41.165290 102.436 -90.0879
41.463591 102.683 -90.9669
41.764053 102.938 -91.8634
42.066693 103.200 -92.7826
42.371525 103.465 -93.7293
42.678567 103.732 -94.7074
42.987834 103.997 -95.7200
43.299341 104.257 -96.7692
43.613106 104.510 -97.8564
43.929145 104.753 -98.9817
44.247473 104.984 -100.1445
44.568109 105.200 -101.3431
44.891068 105.400 -102.5754
45.216367 105.581 -103.8387
45.544023 105.743 -105.1301
45.874054 105.884 -106.4471
46.206476 106.004 -107.7870
46.541307 106.101 -109.1475
46.878565 106.175 -110.5258
47.218266 106.227 -111.9191
47.560429 106.257 -113.3239
47.905072 106.264 -114.7362
48.252212 106.250 -116.1516
48.601867 106.216 -117.5654
48.954056 106.163 -118.9724
49.308798 106.093 -120.3679
49.666109 106.007 -121.7469
50.026010 105.907 -123.1046
50.388520 105.795 -124.4367
50.753656 105.674 -125.7395
51.121437 105.544 -127.0098
51.491884 105.409 -128.2452
51.865016 105.271 -129.4440
52.240851 105.130 -130.6051
52.619410 104.989 -131.7275
53.000712 104.848 -132.8108
53.384777 104.709 -133.8544
53.771625 104.571 -134.8580
54.161276 104.435 -135.8215
54.553751 104.300 -136.7449
54.949070 104.165 -137.6286
55.347254 104.030 -138.4728
55.748323 103.895 -139.2782
56.152298 103.758 -140.0454
56.559201 103.618 -140.7753
56.969052 103.477 -141.4687
57.381873 103.333 -142.1270
57.797686 103.186 -142.7516
58.216512 103.037 -143.3441
58.638373 102.886 -143.9064
59.063291 102.733 -144.4405
59.491288 102.580 -144.9481
59.922386 102.426 -145.4308
60.356608 102.273 -145.8900
60.793977 102.121 -146.3266
61.234515 101.970 -146.7415
61.678246 101.821 -147.1355
62.125192 101.675 -147.5092
62.575377 101.531 -147.8634
63.028824 101.392 -148.1989
63.485557 101.256 -148.5163
63.945599 101.124 -148.8166
64.408975 100.998 -149.1001
64.875709 100.876 -149.3676
65.345825 100.761 -149.6192
65.819348 100.651 -149.8554
66.296302 100.548 -150.0766
66.776713 100.451 -150.2836
67.260604 100.360 -150.4776
67.748002 100.276 -150.6600
68.238932 100.198 -150.8327
68.733420 100.126 -150.9977
69.231490 100.059 -151.1573
69.733170 99.998 -151.3134
70.238485 99.942 -151.4681
70.747463 99.891 -151.6234
71.260128 99.844 -151.7809
71.776508 99.801 -151.9425
72.296630 99.762 -152.1095
72.820521 99.727 -152.2833
73.348209 99.695 -152.4649
73.879720 99.667 -152.6550
74.415083 99.641 -152.8539
74.954326 99.619 -153.0615
75.497475 99.598 -153.2777
76.044561 99.579 -153.5023
76.595612 99.561 -153.7353
77.150655 99.542 -153.9767
77.709720 99.523 -154.2262
78.272837 99.502 -154.4838
78.840034 99.478 -154.7490
79.411342 99.452 -155.0211
79.986789 99.421 -155.2995
80.566406 99.386 -155.5831
81.150224 99.347 -155.8710
81.738272 99.304 -156.1625
82.330581 99.258 -156.4570
82.927182 99.209 -156.7538
83.528107 99.158 -157.0527
84.133386 99.107 -157.3537
84.743051 99.058 -157.6568
85.357134 99.015 -157.9619
85.975667 98.979 -158.2690
86.598682 98.955 -158.5775
87.226212 98.945 -158.8868
87.858289 98.953 -159.1957
88.494946 98.982 -159.5029
89.136217 99.034 -159.8068
89.782135 99.109 -160.1061
90.432733 99.207 -160.3994
91.088046 99.326 -160.6854
91.748108 99.462 -160.9633
92.412952 99.612 -161.2324
93.082615 99.769 -161.4923
93.757130 99.930 -161.7427
94.436533 100.087 -161.9831
95.120859 100.237 -162.2129
95.810144 100.376 -162.4315
96.504423 100.500 -162.6384
97.203734 100.607 -162.8328
97.908112 100.697 -163.0145
98.617595 100.769 -163.1829
99.332219 100.825 -163.3380
100.052021 100.867 -163.4799
100.777039 100.896 -163.6089
101.507311 100.914 -163.7254
102.242875 100.925 -163.8302
102.983769 100.929 -163.9243
103.730032 100.929 -164.0086
104.481702 100.925 -164.0845
105.238820 100.917 -164.1530
106.001424 100.904 -164.2150
106.769554 100.886 -164.2713
107.543250 100.860 -164.3225
108.322553 100.826 -164.3690
109.107503 100.783 -164.4117
109.898141 100.727 -164.4516
110.694508 100.660 -164.4897
111.496646 100.581 -164.5271
112.304596 100.490 -164.5646
113.118402 100.388 -164.6032
113.938104 100.277 -164.6438
114.763747 100.159 -164.6871
115.595372 100.037 -164.7335
116.433024 99.911 -164.7836
117.276746 99.785 -164.8377
118.126581 99.660 -164.8962
118.982575 99.538 -164.9595
119.844772 99.420 -165.0281
120.713217 99.304 -165.1025
121.587954 99.192 -165.1832
122.469031 99.083 -165.2707
123.356492 98.975 -165.3652
124.250384 98.866 -165.4670
125.150753 98.756 -165.5762
126.057647 98.642 -165.6932
126.971113 98.524 -165.8181
127.891198 98.400 -165.9514
128.817950 98.270 -166.0934
129.751418 98.132 -166.2442
130.691651 97.987 -166.4037
131.638696 97.836 -166.5715
132.592604 97.680 -166.7468
133.553425 97.520 -166.9287
134.521208 97.359 -167.1163
135.496004 97.199 -167.3087
136.477864 97.044 -167.5051
137.466839 96.897 -167.7043
138.462981 96.761 -167.9054
139.466340 96.639 -168.1067
140.476971 96.532 -168.3066
141.494925 96.442 -168.5033
142.520256 96.367 -168.6949
143.553016 96.305 -168.8796
144.593260 96.256 -169.0554
145.641043 96.214 -169.2204
146.696418 96.176 -169.3727
147.759441 96.138 -169.5100
148.830166 96.097 -169.6299
149.908651 96.049 -169.7298
150.994951 95.994 -169.8069
152.089123 95.929 -169.8578
153.191223 95.855 -169.8797
154.301310 95.773 -169.8695
155.419441 95.683 -169.8247
156.545674 95.587 -169.7433
157.680069 95.488 -169.6236
158.822683 95.387 -169.4642
159.973578 95.286 -169.2645
161.132813 95.186 -169.0235
162.300447 95.090 -168.7411
163.476543 94.997 -168.4174
164.661162 94.910 -168.0531
165.854364 94.828 -167.6496
167.056213 94.753 -167.2090
168.266772 94.685 -166.7340
169.486102 94.625 -166.2276
170.714268 94.574 -165.6931
171.951334 94.533 -165.1336
173.197364 94.502 -164.5524
174.452424 94.481 -163.9526
175.716578 94.471 -163.3374
176.989893 94.470 -162.7099
178.272434 94.478 -162.0734
179.564270 94.493 -161.4313
180.865467 94.515 -160.7867
182.176092 94.542 -160.1428
183.496216 94.572 -159.5024
184.825905 94.605 -158.8678
186.165229 94.639 -158.2410
187.514259 94.675 -157.6237
188.873065 94.713 -157.0171
190.241717 94.751 -156.4226
191.620287 94.792 -155.8410
193.008847 94.834 -155.2733
194.407468 94.879 -154.7203
195.816225 94.925 -154.1828
197.235190 94.974 -153.6615
198.664438 95.025 -153.1570
200.104042 95.077 -152.6695
201.554078 95.129 -152.1989
203.014622 95.182 -151.7450
204.485750 95.233 -151.3073
205.967538 95.284 -150.8851
207.460064 95.332 -150.4779
208.963405 95.379 -150.0848
210.477640 95.422 -149.7050
212.002848 95.464 -149.3376
213.539108 95.502 -148.9818
215.086500 95.539 -148.6370
216.645105 95.574 -148.3023
218.215005 95.607 -147.9767
219.796281 95.638 -147.6595
221.389015 95.668 -147.3495
222.993292 95.694 -147.0457
224.609193 95.718 -146.7473
226.236804 95.738 -146.4534
227.876209 95.755 -146.1634
229.527494 95.767 -145.8770
231.190745 95.774 -145.5941
232.866048 95.777 -145.3149
234.553491 95.776 -145.0399
236.253163 95.772 -144.7697
237.965150 95.765 -144.5049
239.689544 95.757 -144.2464
241.426433 95.749 -143.9948
243.175909 95.742 -143.7507
244.938062 95.736 -143.5146
246.712984 95.733 -143.2864
248.500768 95.732 -143.0659
250.301507 95.736 -142.8528
252.115295 95.744 -142.6466
253.942226 95.757 -142.4468
255.782396 95.775 -142.2534
257.635901 95.799 -142.0666
259.502837 95.830 -141.8866
261.383301 95.868 -141.7141
263.277392 95.912 -141.5501
265.185209 95.964 -141.3955
267.106850 96.024 -141.2515
269.042417 96.090 -141.1192
270.992009 96.162 -140.9997
272.955729 96.240 -140.8941
274.933678 96.324 -140.8031
276.925961 96.411 -140.7278
278.932681 96.503 -140.6685
280.953942 96.598 -140.6257
282.989850 96.695 -140.5991
285.040511 96.797 -140.5883
287.106032 96.901 -140.5925
289.186521 97.010 -140.6109
291.282086 97.124 -140.6426
293.392836 97.242 -140.6870
295.518881 97.367 -140.7434
297.660333 97.496 -140.8118
299.817302 97.631 -140.8920
301.989902 97.769 -140.9838
304.178245 97.909 -141.0873
306.382446 98.049 -141.2024
308.602620 98.189 -141.3288
310.838882 98.325 -141.4666
313.091348 98.456 -141.6155
315.360137 98.580 -141.7754
317.645367 98.697 -141.9460
319.947156 98.805 -142.1269
322.265625 98.903 -142.3179
324.600895 98.991 -142.5186
326.953086 99.069 -142.7290
329.322323 99.135 -142.9489
331.708729 99.190 -143.1783
334.112427 99.233 -143.4173
336.533543 99.266 -143.6662
338.972204 99.289 -143.9251
341.428536 99.301 -144.1945
343.902668 99.305 -144.4749
346.394729 99.302 -144.7666
348.904848 99.294 -145.0701
351.433156 99.281 -145.3855
353.979786 99.268 -145.7130
356.544869 99.255 -146.0527
359.128540 99.246 -146.4046
361.730934 99.244 -146.7689
364.352185 99.250 -147.1459
366.992431 99.268 -147.5358
369.651810 99.299 -147.9391
372.330459 99.345 -148.3562
375.028519 99.405 -148.7874
377.746130 99.479 -149.2328
380.483434 99.567 -149.6922
383.240574 99.666 -150.1649
386.017693 99.773 -150.6499
388.814937 99.887 -151.1456
391.632450 100.003 -151.6498
394.470380 100.119 -152.1600
397.328875 100.233 -152.6732
400.208084 100.341 -153.1860
403.108157 100.444 -153.6946
406.029245 100.538 -154.1952
408.971500 100.624 -154.6834
411.935076 100.703 -155.1550
414.920127 100.774 -155.6056
417.926810 100.838 -156.0314
420.955280 100.897 -156.4287
424.005695 100.953 -156.7948
427.078215 101.007 -157.1275
430.173000 101.060 -157.4257
433.290211 101.113 -157.6895
436.430010 101.167 -157.9197
439.592562 101.222 -158.1186
442.778031 101.279 -158.2893
445.986583 101.335 -158.4357
449.218386 101.390 -158.5626
452.473607 101.443 -158.6752
455.752418 101.492 -158.7786
459.054987 101.535 -158.8781
462.381489 101.572 -158.9782
465.732096 101.600 -159.0828
469.106983 101.620 -159.1950
472.506325 101.631 -159.3170
475.930301 101.633 -159.4499
479.379088 101.627 -159.5944
482.852867 101.613 -159.7504
486.351817 101.592 -159.9175
489.876123 101.564 -160.0950
493.425968 101.531 -160.2822
497.001536 101.494 -160.4783
500.603014 101.452 -160.6825
504.230589 101.405 -160.8943
507.884452 101.355 -161.1133
511.564792 101.300 -161.3390
515.271802 101.241 -161.5711
519.005673 101.178 -161.8090
522.766602 101.112 -162.0522
526.554785 101.044 -162.2996
530.370418 100.975 -162.5503
534.213700 100.907 -162.8031
538.084833 100.841 -163.0568
541.984018 100.779 -163.3098
545.911457 100.723 -163.5608
549.867357 100.673 -163.8080
553.851922 100.630 -164.0500
557.865362 100.593 -164.2850
561.907884 100.560 -164.5111
565.979700 100.531 -164.7268
570.081022 100.504 -164.9302
574.212064 100.477 -165.1198
578.373042 100.447 -165.2940
582.564171 100.414 -165.4514
586.785671 100.375 -165.5906
591.037762 100.330 -165.7104
595.320665 100.278 -165.8100
599.634604 100.219 -165.8886
603.979804 100.152 -165.9461
608.356491 100.078 -165.9826
612.764893 99.998 -165.9986
617.205240 99.913 -165.9950
621.677763 99.823 -165.9734
626.182696 99.731 -165.9357
630.720274 99.639 -165.8844
635.290733 99.548 -165.8222
639.894312 99.461 -165.7523
644.531250 99.379 -165.6781
649.201789 99.305 -165.6028
653.906173 99.239 -165.5298
658.644647 99.182 -165.4618
663.417457 99.134 -165.4015
668.224854 99.093 -165.3509
673.067086 99.059 -165.3117
677.944408 99.030 -165.2852
682.857073 99.004 -165.2722
687.805336 98.978 -165.2733
692.789457 98.951 -165.2886
697.809695 98.920 -165.3179
702.866312 98.884 -165.3603
707.959571 98.841 -165.4145
713.089738 98.790 -165.4783
718.257080 98.730 -165.5484
723.461867 98.660 -165.6210
728.704370 98.581 -165.6906
733.984862 98.491 -165.7507
739.303619 98.391 -165.7940
744.660918 98.281 -165.8117
750.057038 98.163 -165.7943
755.492260 98.036 -165.7319
760.966869 97.902 -165.6141
766.481148 97.761 -165.4309
772.035387 97.615 -165.1728
777.629873 97.464 -164.8314
783.264900 97.309 -164.4001
788.940760 97.152 -163.8745
794.657750 96.993 -163.2531
800.416168 96.834 -162.5374
806.216313 96.676 -161.7327
812.058489 96.520 -160.8478
817.943000 96.369 -159.8945
823.870152 96.223 -158.8872
829.840255 96.083 -157.8416
835.853619 95.952 -156.7736
841.910559 95.829 -155.6986
848.011390 95.716 -154.6306
854.156430 95.613 -153.5819
860.346000 95.521 -152.5622
866.580422 95.440 -151.5796
872.860020 95.370 -150.6399
879.185124 95.313 -149.7472
885.556062 95.266 -148.9039
891.973166 95.232 -148.1109
898.436771 95.209 -147.3679
904.947215 95.199 -146.6736
911.504835 95.200 -146.0254
918.109975 95.213 -145.4202
924.762978 95.237 -144.8543
931.464192 95.273 -144.3234
938.213966 95.320 -143.8235
945.012651 95.377 -143.3508
951.860602 95.445 -142.9019
958.758176 95.523 -142.4744
965.705733 95.610 -142.0669
972.703635 95.705 -141.6791
979.752246 95.809 -141.3120
986.851935 95.920 -140.9677
994.003071 96.038 -140.6491
1001.206027 96.163 -140.3596
1008.461179 96.295 -140.1028
1015.768904 96.433 -139.8823
1023.129584 96.578 -139.7012
1030.543603 96.729 -139.5619
1038.011347 96.886 -139.4663
1045.533205 97.049 -139.4154
1053.109569 97.218 -139.4096
1060.740836 97.391 -139.4487
1068.427401 97.568 -139.5321
1076.169666 97.747 -139.6587
1083.968035 97.926 -139.8272
1091.822915 98.103 -140.0361
1099.734713 98.275 -140.2835
1107.703844 98.442 -140.5674
1115.730723 98.599 -140.8854
1123.815768 98.745 -141.2346
1131.959400 98.878 -141.6114
1140.162045 98.997 -142.0113
1148.424129 99.100 -142.4286
1156.746083 99.187 -142.8559
1165.128342 99.257 -143.2842
1173.571343 99.312 -143.7025
1182.075524 99.352 -144.0978
1190.641331 99.378 -144.4555
1199.269209 99.393 -144.7599
1207.959608 99.398 -144.9951
1216.712981 99.395 -145.1460
1225.529785 99.389 -145.2001
1234.410479 99.382 -145.1483
1243.355526 99.375 -144.9857
1252.365393 99.374 -144.7126
1261.440549 99.378 -144.3342
1270.581467 99.392 -143.8614
1279.788624 99.417 -143.3100
1289.062500 99.454 -142.7003
1298.403578 99.505 -142.0559
1307.812346 99.569 -141.4015
1317.289293 99.646 -140.7614
1326.834914 99.736 -140.1572
1336.449707 99.836 -139.6070
1346.134173 99.944 -139.1243
1355.888816 100.059 -138.7180
1365.714145 100.178 -138.3936
1375.610673 100.299 -138.1532
1385.578915 100.420 -137.9968
1395.619391 100.539 -137.9230
1405.732624 100.654 -137.9287
1415.919142 100.765 -138.0102
1426.179476 100.871 -138.1629
1436.514160 100.970 -138.3813
1446.923734 101.064 -138.6596
1457.408740 101.151 -138.9916
1467.969724 101.233 -139.3708
1478.607238 101.308 -139.7906
1489.321836 101.378 -140.2445
1500.114076 101.443 -140.7261
1510.984521 101.503 -141.2292
1521.933737 101.557 -141.7479
1532.962297 101.607 -142.2768
1544.070773 101.651 -142.8109
1555.259747 101.690 -143.3459
1566.529800 101.723 -143.8776
1577.881521 101.750 -144.4027
1589.315501 101.771 -144.9181
1600.832336 101.786 -145.4208
1612.432627 101.793 -145.9083
1624.116978 101.793 -146.3782
1635.886000 101.785 -146.8279
1647.740304 101.770 -147.2542
1659.680509 101.747 -147.6530
1671.707238 101.716 -148.0182
1683.821118 101.677 -148.3419
1696.022780 101.631 -148.6151
1708.312860 101.579 -148.8281
1720.692000 101.523 -148.9718
1733.160843 101.465 -149.0392
1745.720041 101.407 -149.0267
1758.370248 101.352 -148.9350
1771.112124 101.301 -148.7694
1783.946332 101.257 -148.5401
1796.873543 101.221 -148.2615
1809.894429 101.193 -147.9501
1823.009670 101.174 -147.6241
1836.219950 101.161 -147.3004
1849.525956 101.155 -146.9940
1862.928384 101.153 -146.7159
1876.427931 101.153 -146.4727
1890.025301 101.154 -146.2660
1903.721204 101.152 -146.0928
1917.516352 101.148 -145.9462
1931.411466 101.140 -145.8159
1945.407270 101.127 -145.6905
1959.504493 101.108 -145.5587
1973.703870 101.083 -145.4108
1988.006142 101.054 -145.2408
2002.412054 101.018 -145.0458
2016.922357 100.977 -144.8264
2031.537808 100.930 -144.5842
2046.259169 100.876 -144.3211
2061.087206 100.814 -144.0381
2076.022694 100.745 -143.7355
2091.066410 100.669 -143.4133
2106.219139 100.586 -143.0725
2121.481671 100.498 -142.7152
2136.854802 100.406 -142.3447
2152.339333 100.310 -141.9652
2167.936071 100.214 -141.5800
2183.645829 100.116 -141.1912
2199.469427 100.019 -140.7982
2215.407689 99.923 -140.3986
2231.461446 99.830 -139.9878
2247.631536 99.739 -139.5609
2263.918800 99.654 -139.1138
2280.324089 99.574 -138.6447
2296.848258 99.502 -138.1550
2313.492167 99.438 -137.6497
2330.256685 99.383 -137.1370
2347.142685 99.338 -136.6270
2364.151049 99.301 -136.1296
2381.282662 99.272 -135.6536
2398.538418 99.251 -135.2056
2415.919216 99.235 -134.7904
2433.425962 99.224 -134.4113
2451.059570 99.217 -134.0706
2468.820958 99.212 -133.7697
2486.711052 99.210 -133.5088
2504.730786 99.208 -133.2864
2522.881098 99.206 -133.0989
2541.162934 99.204 -132.9408
2559.577248 99.200 -132.8044
2578.125000 99.195 -132.6802
2596.807157 99.188 -132.5563
2615.624692 99.180 -132.4178
2634.578586 99.172 -132.2460
2653.669829 99.165 -132.0178
2672.899414 99.161 -131.7072
2692.268345 99.164 -131.2880
2711.777632 99.178 -130.7386
2731.428290 99.210 -130.0471
2751.221345 99.264 -129.2164
2771.157829 99.346 -128.2669
2791.238781 99.457 -127.2352
2811.465248 99.597 -126.1694
2831.838284 99.764 -125.1211
2852.358952 99.951 -124.1371
2873.028321 100.152 -123.2531
2893.847468 100.361 -122.4904
2914.817480 100.571 -121.8572
2935.939449 100.778 -121.3510
2957.214476 100.977 -120.9628
2978.643672 101.165 -120.6802
3000.228152 101.342 -120.4905
3021.969041 101.507 -120.3818
3043.867475 101.659 -120.3445
3065.924593 101.799 -120.3711
3088.141547 101.928 -120.4558
3110.519493 102.044 -120.5934
3133.059600 102.150 -120.7782
3155.763041 102.246 -121.0031
3178.631001 102.332 -121.2606
3201.664672 102.410 -121.5435
3224.865254 102.481 -121.8460
3248.233957 102.547 -122.1650
3271.771999 102.609 -122.5010
3295.480608 102.669 -122.8577
3319.361019 102.728 -123.2418
3343.414477 102.787 -123.6615
3367.642236 102.845 -124.1256
3392.045560 102.901 -124.6420
3416.625721 102.956 -125.2170
3441.383999 103.007 -125.8547
3466.321686 103.054 -126.5572
3491.440082 103.095 -127.3244
3516.740496 103.128 -128.1539
3542.224247 103.152 -129.0404
3567.892664 103.164 -129.9748
3593.747085 103.162 -130.9426
3619.788858 103.142 -131.9218
3646.019340 103.104 -132.8815
3672.439900 103.045 -133.7809
3699.051913 102.965 -134.5698
3725.856768 102.866 -135.1913
3752.855862 102.753 -135.5882
3780.050603 102.634 -135.7126
3807.442408 102.521 -135.5386
3835.032705 102.426 -135.0752
3862.822933 102.360 -134.3723
3890.814540 102.333 -133.5155
3919.008986 102.348 -132.6075
3947.407741 102.400 -131.7444
3976.012284 102.485 -130.9968
4004.824108 102.593 -130.4019
4033.844715 102.717 -129.9684
4063.075616 102.851 -129.6861
4092.518337 102.990 -129.5387
4122.174412 103.132 -129.5115
4152.045387 103.274 -129.5947
4182.132820 103.413 -129.7819
4212.438278 103.548 -130.0667
4242.963342 103.676 -130.4403
4273.709604 103.795 -130.8913
4304.678665 103.904 -131.4063
4335.872141 104.001 -131.9722
4367.291658 104.086 -132.5773
4398.938854 104.159 -133.2125
4430.815378 104.218 -133.8696
4462.922893 104.265 -134.5412
4495.263072 104.298 -135.2193
4527.837601 104.316 -135.8956
4560.648179 104.320 -136.5622
4593.696515 104.310 -137.2115
4626.984334 104.286 -137.8362
4660.513370 104.248 -138.4288
4694.285371 104.198 -138.9808
4728.302098 104.136 -139.4829
4762.565324 104.065 -139.9255
4797.076835 103.987 -140.3004
4831.838432 103.905 -140.6031
4866.851925 103.824 -140.8350
4902.119140 103.747 -141.0038
4937.641916 103.678 -141.1228
4973.422105 103.619 -141.2077
5009.461572 103.572 -141.2741
5045.762195 103.537 -141.3355
5082.325868 103.516 -141.4028
5119.154496 103.508 -141.4848
5156.250000 103.513 -141.5892
5193.614313 103.531 -141.7239
5231.249383 103.561 -141.8966
5269.157173 103.603 -142.1149
5307.339658 103.655 -142.3849
5345.798829 103.716 -142.7108
5384.536691 103.785 -143.0953
5423.555263 103.861 -143.5411
5462.856580 103.945 -144.0512
5502.442691 104.036 -144.6305
5542.315659 104.133 -145.2847
5582.477563 104.237 -146.0197
5622.930497 104.348 -146.8406
5663.676569 104.465 -147.7523
5704.717904 104.590 -148.7600
5746.056642 104.723 -149.8709
5787.694937 104.864 -151.0952
5829.634960 105.011 -152.4460
5871.878898 105.164 -153.9384
5914.428953 105.317 -155.5862
5957.287343 105.467 -157.3990
6000.456303 105.609 -159.3797
6043.938083 105.735 -161.5241
6087.734950 105.840 -163.8215
6131.849187 105.920 -166.2561
6176.283094 105.969 -168.8078
6221.038987 105.983 -171.4525
6266.119200 105.957 -174.1621
6311.526083 105.889 -176.9053
6357.262002 105.776 -179.6493
6403.329344 105.617 177.6393
6449.730508 105.413 174.9940
6496.467914 105.161 172.4495
6543.543998 104.864 170.0412
6590.961215 104.521 167.8069
6638.722037 104.135 165.7863
6686.828954 103.708 164.0206
6735.284473 103.245 162.5525
6784.091120 102.749 161.4247
6833.251441 102.228 160.6790
6882.767998 101.690 160.3537
6932.643372 101.146 160.4800
6982.880164 100.609 161.0759
7033.480992 100.094 162.1389
7084.448495 99.621 163.6377
7135.785329 99.207 165.5054
7187.494171 98.871 167.6366
7239.577717 98.629 169.8922
7292.038681 98.486 172.1112
7344.879799 98.444 174.1295
7398.103826 98.490 175.8000
7451.713536 98.609 177.0078
7505.711724 98.777 177.6788
7560.101205 98.971 177.7799
7614.884815 99.166 177.3147
7670.065409 99.341 176.3179
7725.645865 99.477 174.8485
7781.629080 99.558 172.9846
7838.017972 99.571 170.8193
7894.815481 99.506 168.4592
7952.024569 99.358 166.0233
8009.648217 99.124 163.6423
8067.689429 98.805 161.4576
8126.151233 98.408 159.6251
8185.036674 97.942 158.3260
8244.348824 97.423 157.7897
8304.090774 96.872 158.3275
8364.265639 96.318 160.3740
8424.876556 95.800 164.5145
8485.926684 95.366 171.4005
8547.419207 95.067 -178.6758
8609.357330 94.946 -166.6286
8671.744282 95.022 -154.7960
8734.583316 95.286 -145.3864
8797.877707 95.699 -139.1052
8861.630756 96.216 -135.5501
8925.845785 96.791 -134.0388
8990.526143 97.387 -133.9843
9055.675202 97.980 -134.9610
9121.296357 98.552 -136.6762
9187.393031 99.096 -138.9308
9253.968668 99.605 -141.5864
9321.026740 100.078 -144.5445
9388.570742 100.517 -147.7357
9456.604196 100.924 -151.1145
9525.130648 101.300 -154.6554
9594.153671 101.649 -158.3487
9663.676863 101.968 -162.1949
9733.703850 102.257 -166.2011
9804.238280 102.512 -170.3766
9875.283832 102.727 -174.7282
9946.844210 102.896 -179.2551
10018.923143 103.010 176.0552
10091.524390 103.061 171.2298
10164.651736 103.042 166.3108
10238.308993 102.950 161.3518
10312.500000 102.784 156.4110
10387.228626 102.549 151.5402
10462.498767 102.250 146.7787
10538.314345 101.897 142.1524
10614.679315 101.498 137.6758
10691.597657 101.063 133.3537
10769.073381 100.599 129.1829
10847.110526 100.113 125.1545
10925.713161 99.611 121.2563
11004.885382 99.095 117.4752
11084.631318 98.568 113.7992
11164.955126 98.029 110.2194
11245.860993 97.478 106.7317
11327.353138 96.912 103.3348
11409.435808 96.329 100.0288
11492.113283 95.730 96.8120
11575.389873 95.114 93.6801
11659.269920 94.481 90.6242
11743.757796 93.833 87.6320
11828.857906 93.171 84.6870
11914.574686 92.498 81.7702
12000.912606 91.817 78.8604
12087.876166 91.129 75.9347
12175.469900 90.439 72.9682
12263.698373 89.749 69.9316
12352.566187 89.064 66.7891
12442.077974 88.390 63.4944
12532.238400 87.736 59.9882
12623.052165 87.110 56.1949
12714.524005 86.524 52.0203
12806.658687 85.992 47.3474
12899.461015 85.528 42.0326
12992.935827 85.147 35.9026
13087.087996 84.860 28.7524
13181.922430 84.674 20.3517
13277.444074 84.592 10.4657
13373.657907 84.608 -1.0884
13470.568945 84.714 -14.3301
13568.182241 84.897 -28.9731
13666.502883 85.143 -44.3669
13765.535996 85.437 -59.6648
13865.286744 85.765 -74.1509
13965.760328 86.115 -87.4528
14066.961984 86.477 -99.5164
14168.896989 86.845 -110.4662
14271.570658 87.217 -120.4836
14374.988342 87.594 -129.7445
14479.155433 87.980 -138.3981
14584.077362 88.382 -146.5673
14689.759598 88.806 -154.3563
14796.207652 89.258 -161.8585
14903.427072 89.742 -169.1625
15011.423448 90.256 -176.3543
15120.202410 90.794 176.4827
15229.769630 91.347 169.2693
15340.130819 91.906 161.9333
15451.291730 92.456 154.4128
15563.258160 92.986 146.6577
15676.035944 93.483 138.6317
15789.630962 93.937 130.3137
15904.049137 94.337 121.6970
16019.296433 94.675 112.7897
16135.378859 94.944 103.6135
16252.302465 95.138 94.2025
16370.073348 95.254 84.6014
16488.697648 95.292 74.8639
16608.181548 95.256 65.0483
16728.531278 95.152 55.2127
16849.753112 94.998 45.4060
16971.853368 94.813 35.6595
17094.838414 94.629 25.9772
17218.714660 94.481 16.3287
17343.488565 94.405 6.6500
17469.166632 94.431 -3.1509
17595.755415 94.572 -13.1788
17723.261512 94.826 -23.5340
17851.691571 95.174 -34.2958
17981.052287 95.588 -45.5127
18111.350404 96.037 -57.1979
18242.592715 96.493 -69.3332
18374.786062 96.932 -81.8759
18507.937336 97.333 -94.7703
18642.053479 97.681 -107.9653
18777.141484 97.963 -121.4479
18913.208391 98.174 -135.3274
19050.261296 98.313 -150.0847
19188.307342 98.384 -167.4890
19327.353727 98.396 164.6729
19467.407699 98.365 96.8071
19608.476560 98.308 42.5896
19750.567664 98.242 23.6388
19893.688419 98.187 14.9336
20037.846286 98.155 11.1810
