* Measurement data measured by REW V5.31.3
* Source: EXCL: Headset (USB-C to 3.5mm Headphone Jack Adapter), MICROPHONE (Master Volume), 0, volume: 0.260
* Format: 256k Log Swept Sine, 1 sweep at -12.0 dBFS with no timing reference
* Dated: Feb 10, 2025 1:50:19 PM
* REW Settings:
*  C-weighting compensation: Off
*  Target level: 75.0 dB
* Note: ; 
* Measurement: Maxwell R9
* Smoothing: 1/6 octave
* Frequency Step: 96 ppo
* Start Frequency: 20.0 Hz
*
* Freq(Hz) SPL(dB) Phase(degrees)
20.141602 99.148 28.4390
20.287556 99.177 27.9691
20.434568 99.214 27.3503
20.582645 99.258 26.6113
20.731796 99.307 25.7817
20.882027 99.359 24.8880
21.033346 99.413 23.9518
21.185763 99.469 22.9881
21.339284 99.525 22.0051
21.493917 99.583 21.0051
21.649671 99.643 19.9855
21.806553 99.705 18.9407
21.964572 99.768 17.8637
22.123737 99.833 16.7476
22.284054 99.899 15.5867
22.445534 99.966 14.3773
22.608183 100.033 13.1182
22.772012 100.101 11.8104
22.937027 100.170 10.4567
23.103238 100.239 9.0616
23.270654 100.310 7.6306
23.439282 100.384 6.1692
23.609133 100.463 4.6832
23.780215 100.546 3.1776
23.952536 100.635 1.6572
24.126106 100.732 0.1259
24.300934 100.835 -1.4128
24.477028 100.945 -2.9557
24.654399 101.061 -4.4999
24.833055 101.181 -6.0429
25.013005 101.304 -7.5818
25.194260 101.429 -9.1146
25.376828 101.554 -10.6394
25.560719 101.677 -12.1551
25.745942 101.796 -13.6617
25.932508 101.912 -15.1599
26.120426 102.022 -16.6516
26.309705 102.128 -18.1397
26.500356 102.227 -19.6272
26.692388 102.319 -21.1175
26.885812 102.406 -22.6134
27.080638 102.486 -24.1167
27.276876 102.559 -25.6284
27.474535 102.628 -27.1478
27.673627 102.691 -28.6735
27.874161 102.752 -30.2030
28.076149 102.812 -31.7339
28.279600 102.874 -33.2638
28.484526 102.941 -34.7911
28.690937 103.015 -36.3152
28.898843 103.099 -37.8365
29.108256 103.195 -39.3563
29.319186 103.303 -40.8761
29.531645 103.423 -42.3976
29.745644 103.555 -43.9213
29.961193 103.695 -45.4467
30.178304 103.840 -46.9720
30.396989 103.987 -48.4938
30.617258 104.130 -50.0074
30.839123 104.266 -51.5078
31.062596 104.390 -52.9898
31.287688 104.499 -54.4488
31.514412 104.588 -55.8816
31.742778 104.655 -57.2866
31.972800 104.698 -58.6640
32.204488 104.714 -60.0156
32.437855 104.702 -61.3445
32.672913 104.662 -62.6547
32.909674 104.595 -63.9500
33.148151 104.500 -65.2339
33.388356 104.380 -66.5088
33.630302 104.237 -67.7756
33.874001 104.072 -69.0336
34.119466 103.891 -70.2809
34.366710 103.695 -71.5137
34.615745 103.490 -72.7275
34.866585 103.280 -73.9173
35.119243 103.069 -75.0779
35.373731 102.862 -76.2047
35.630064 102.663 -77.2942
35.888254 102.476 -78.3441
36.148315 102.306 -79.3540
36.410261 102.155 -80.3251
36.674104 102.027 -81.2605
36.939860 101.923 -82.1648
37.207542 101.846 -83.0436
37.477163 101.797 -83.9034
37.748738 101.775 -84.7504
38.022281 101.782 -85.5907
38.297806 101.815 -86.4290
38.575327 101.875 -87.2688
38.854860 101.961 -88.1119
39.136419 102.070 -88.9584
39.420017 102.201 -89.8071
39.705671 102.353 -90.6562
39.993395 102.525 -91.5034
40.283203 102.715 -92.3472
40.575112 102.920 -93.1867
40.869136 103.140 -94.0229
41.165290 103.373 -94.8579
41.463591 103.617 -95.6956
41.764053 103.870 -96.5411
42.066693 104.129 -97.4002
42.371525 104.394 -98.2792
42.678567 104.660 -99.1838
42.987834 104.925 -100.1194
43.299341 105.187 -101.0898
43.613106 105.444 -102.0976
43.929145 105.692 -103.1438
44.247473 105.928 -104.2284
44.568109 106.151 -105.3504
44.891068 106.358 -106.5083
45.216367 106.547 -107.7003
45.544023 106.717 -108.9251
45.874054 106.866 -110.1811
46.206476 106.993 -111.4669
46.541307 107.097 -112.7813
46.878565 107.179 -114.1221
47.218266 107.238 -115.4868
47.560429 107.274 -116.8715
47.905072 107.288 -118.2714
48.252212 107.281 -119.6807
48.601867 107.255 -121.0927
48.954056 107.209 -122.5005
49.308798 107.147 -123.8974
49.666109 107.069 -125.2771
50.026010 106.978 -126.6344
50.388520 106.875 -127.9652
50.753656 106.763 -129.2666
51.121437 106.642 -130.5367
51.491884 106.516 -131.7748
51.865016 106.385 -132.9805
52.240851 106.252 -134.1536
52.619410 106.117 -135.2940
53.000712 105.982 -136.4010
53.384777 105.847 -137.4737
53.771625 105.713 -138.5113
54.161276 105.580 -139.5127
54.553751 105.447 -140.4775
54.949070 105.315 -141.4051
55.347254 105.182 -142.2954
55.748323 105.048 -143.1483
56.152298 104.913 -143.9641
56.559201 104.775 -144.7432
56.969052 104.635 -145.4865
57.381873 104.493 -146.1950
57.797686 104.349 -146.8701
58.216512 104.202 -147.5130
58.638373 104.054 -148.1248
59.063291 103.905 -148.7068
59.491288 103.754 -149.2597
59.922386 103.603 -149.7844
60.356608 103.452 -150.2815
60.793977 103.302 -150.7517
61.234515 103.154 -151.1958
61.678246 103.006 -151.6143
62.125192 102.861 -152.0082
62.575377 102.719 -152.3782
63.028824 102.579 -152.7254
63.485557 102.443 -153.0509
63.945599 102.311 -153.3562
64.408975 102.183 -153.6433
64.875709 102.059 -153.9142
65.345825 101.942 -154.1708
65.819348 101.830 -154.4148
66.296302 101.724 -154.6471
66.776713 101.624 -154.8682
67.260604 101.530 -155.0788
67.748002 101.442 -155.2793
68.238932 101.360 -155.4708
68.733420 101.285 -155.6547
69.231490 101.215 -155.8327
69.733170 101.151 -156.0067
70.238485 101.092 -156.1785
70.747463 101.038 -156.3502
71.260128 100.989 -156.5235
71.776508 100.944 -156.6998
72.296630 100.904 -156.8803
72.820521 100.869 -157.0658
73.348209 100.837 -157.2567
73.879720 100.808 -157.4534
74.415083 100.782 -157.6563
74.954326 100.758 -157.8658
75.497475 100.737 -158.0825
76.044561 100.716 -158.3069
76.595612 100.696 -158.5397
77.150655 100.676 -158.7817
77.709720 100.656 -159.0332
78.272837 100.635 -159.2945
78.840034 100.611 -159.5656
79.411342 100.585 -159.8463
79.986789 100.556 -160.1358
80.566406 100.524 -160.4333
81.150224 100.487 -160.7380
81.738272 100.448 -161.0486
82.330581 100.405 -161.3642
82.927182 100.359 -161.6837
83.528107 100.312 -162.0063
84.133386 100.265 -162.3314
84.743051 100.221 -162.6584
85.357134 100.181 -162.9870
85.975667 100.149 -163.3167
86.598682 100.128 -163.6473
87.226212 100.121 -163.9783
87.858289 100.132 -164.3092
88.494946 100.164 -164.6394
89.136217 100.217 -164.9681
89.782135 100.295 -165.2947
90.432733 100.395 -165.6184
91.088046 100.515 -165.9384
91.748108 100.654 -166.2542
92.412952 100.805 -166.5649
93.082615 100.965 -166.8701
93.757130 101.127 -167.1690
94.436533 101.287 -167.4610
95.120859 101.439 -167.7458
95.810144 101.579 -168.0226
96.504423 101.704 -168.2912
97.203734 101.813 -168.5508
97.908112 101.903 -168.8011
98.617595 101.976 -169.0415
99.332219 102.031 -169.2712
100.052021 102.072 -169.4899
100.777039 102.100 -169.6970
101.507311 102.117 -169.8925
102.242875 102.125 -170.0762
102.983769 102.128 -170.2485
103.730032 102.125 -170.4099
104.481702 102.118 -170.5612
105.238820 102.106 -170.7032
106.001424 102.091 -170.8369
106.769554 102.069 -170.9635
107.543250 102.040 -171.0843
108.322553 102.002 -171.2004
109.107503 101.954 -171.3131
109.898141 101.895 -171.4235
110.694508 101.823 -171.5324
111.496646 101.739 -171.6410
112.304596 101.643 -171.7499
113.118402 101.536 -171.8602
113.938104 101.419 -171.9725
114.763747 101.295 -172.0872
115.595372 101.166 -172.2046
116.433024 101.033 -172.3248
117.276746 100.899 -172.4476
118.126581 100.767 -172.5729
118.982575 100.636 -172.7005
119.844772 100.508 -172.8305
120.713217 100.384 -172.9630
121.587954 100.264 -173.0982
122.469031 100.145 -173.2366
123.356492 100.029 -173.3786
124.250384 99.913 -173.5250
125.150753 99.795 -173.6767
126.057647 99.675 -173.8347
126.971113 99.550 -174.0001
127.891198 99.420 -174.1741
128.817950 99.284 -174.3577
129.751418 99.140 -174.5519
130.691651 98.990 -174.7570
131.638696 98.832 -174.9731
132.592604 98.669 -175.1995
133.553425 98.501 -175.4350
134.521208 98.332 -175.6782
135.496004 98.164 -175.9274
136.477864 98.001 -176.1809
137.466839 97.845 -176.4372
138.462981 97.699 -176.6948
139.466340 97.567 -176.9522
140.476971 97.450 -177.2080
141.494925 97.349 -177.4606
142.520256 97.264 -177.7085
143.553016 97.192 -177.9497
144.593260 97.132 -178.1824
145.641043 97.080 -178.4048
146.696418 97.032 -178.6145
147.759441 96.984 -178.8093
148.830166 96.933 -178.9867
149.908651 96.876 -179.1443
150.994951 96.811 -179.2792
152.089123 96.736 -179.3885
153.191223 96.652 -179.4693
154.301310 96.559 -179.5186
155.419441 96.459 -179.5336
156.545674 96.352 -179.5117
157.680069 96.242 -179.4506
158.822683 96.129 -179.3483
159.973578 96.017 -179.2037
161.132813 95.906 -179.0161
162.300447 95.799 -178.7862
163.476543 95.696 -178.5152
164.661162 95.597 -178.2050
165.854364 95.505 -177.8580
167.056213 95.419 -177.4769
168.266772 95.341 -177.0645
169.486102 95.270 -176.6237
170.714268 95.208 -176.1575
171.951334 95.156 -175.6689
173.197364 95.113 -175.1608
174.452424 95.079 -174.6357
175.716578 95.055 -174.0959
176.989893 95.041 -173.5436
178.272434 95.034 -172.9809
179.564270 95.035 -172.4100
180.865467 95.041 -171.8333
182.176092 95.051 -171.2532
183.496216 95.065 -170.6724
184.825905 95.081 -170.0933
186.165229 95.098 -169.5182
187.514259 95.116 -168.9495
188.873065 95.135 -168.3892
190.241717 95.155 -167.8392
191.620287 95.177 -167.3009
193.008847 95.200 -166.7757
194.407468 95.225 -166.2644
195.816225 95.253 -165.7677
197.235190 95.282 -165.2861
198.664438 95.313 -164.8198
200.104042 95.345 -164.3690
201.554078 95.377 -163.9338
203.014622 95.408 -163.5139
204.485750 95.439 -163.1086
205.967538 95.468 -162.7171
207.460064 95.494 -162.3382
208.963405 95.518 -161.9705
210.477640 95.539 -161.6126
212.002848 95.558 -161.2632
213.539108 95.574 -160.9208
215.086500 95.588 -160.5841
216.645105 95.601 -160.2520
218.215005 95.612 -159.9236
219.796281 95.621 -159.5984
221.389015 95.629 -159.2760
222.993292 95.634 -158.9562
224.609193 95.637 -158.6388
226.236804 95.637 -158.3236
227.876209 95.634 -158.0106
229.527494 95.626 -157.6996
231.190745 95.614 -157.3908
232.866048 95.598 -157.0839
234.553491 95.577 -156.7789
236.253163 95.554 -156.4755
237.965150 95.528 -156.1738
239.689544 95.500 -155.8744
241.426433 95.472 -155.5779
243.175909 95.444 -155.2855
244.938062 95.417 -154.9982
246.712984 95.393 -154.7169
248.500768 95.372 -154.4420
250.301507 95.355 -154.1738
252.115295 95.342 -153.9122
253.942226 95.334 -153.6570
255.782396 95.331 -153.4081
257.635901 95.335 -153.1657
259.502837 95.345 -152.9299
261.383301 95.362 -152.7012
263.277392 95.386 -152.4800
265.185209 95.418 -152.2670
267.106850 95.457 -152.0629
269.042417 95.504 -151.8687
270.992009 95.557 -151.6854
272.955729 95.616 -151.5140
274.933678 95.681 -151.3557
276.925961 95.750 -151.2111
278.932681 95.824 -151.0807
280.953942 95.901 -150.9643
282.989850 95.982 -150.8617
285.040511 96.065 -150.7722
287.106032 96.153 -150.6952
289.186521 96.244 -150.6299
291.282086 96.341 -150.5757
293.392836 96.443 -150.5322
295.518881 96.550 -150.4991
297.660333 96.663 -150.4762
299.817302 96.781 -150.4635
301.989902 96.903 -150.4611
304.178245 97.028 -150.4690
306.382446 97.154 -150.4871
308.602620 97.279 -150.5156
310.838882 97.401 -150.5545
313.091348 97.519 -150.6037
315.360137 97.631 -150.6632
317.645367 97.735 -150.7329
319.947156 97.831 -150.8126
322.265625 97.918 -150.9020
324.600895 97.995 -151.0009
326.953086 98.062 -151.1093
329.322323 98.118 -151.2268
331.708729 98.162 -151.3535
334.112427 98.196 -151.4892
336.533543 98.218 -151.6341
338.972204 98.231 -151.7882
341.428536 98.234 -151.9516
343.902668 98.228 -152.1245
346.394729 98.215 -152.3071
348.904848 98.197 -152.4996
351.433156 98.175 -152.7024
353.979786 98.152 -152.9156
356.544869 98.130 -153.1397
359.128540 98.111 -153.3749
361.730934 98.099 -153.6218
364.352185 98.096 -153.8807
366.992431 98.105 -154.1522
369.651810 98.127 -154.4364
372.330459 98.164 -154.7339
375.028519 98.215 -155.0446
377.746130 98.282 -155.3684
380.483434 98.362 -155.7047
383.240574 98.453 -156.0527
386.017693 98.554 -156.4110
388.814937 98.661 -156.7777
391.632450 98.771 -157.1504
394.470380 98.882 -157.5264
397.328875 98.991 -157.9028
400.208084 99.096 -158.2760
403.108157 99.195 -158.6427
406.029245 99.287 -158.9990
408.971500 99.372 -159.3410
411.935076 99.450 -159.6649
414.920127 99.521 -159.9671
417.926810 99.588 -160.2443
420.955280 99.650 -160.4940
424.005695 99.710 -160.7144
427.078215 99.769 -160.9045
430.173000 99.828 -161.0645
433.290211 99.889 -161.1955
436.430010 99.951 -161.2997
439.592562 100.015 -161.3804
442.778031 100.080 -161.4414
445.986583 100.145 -161.4871
449.218386 100.209 -161.5225
452.473607 100.270 -161.5522
455.752418 100.326 -161.5807
459.054987 100.376 -161.6120
462.381489 100.419 -161.6493
465.732096 100.453 -161.6951
469.106983 100.478 -161.7512
472.506325 100.494 -161.8186
475.930301 100.500 -161.8974
479.379088 100.497 -161.9877
482.852867 100.487 -162.0889
486.351817 100.469 -162.2005
489.876123 100.445 -162.3216
493.425968 100.415 -162.4516
497.001536 100.381 -162.5900
500.603014 100.342 -162.7362
504.230589 100.299 -162.8897
507.884452 100.252 -163.0504
511.564792 100.200 -163.2178
515.271802 100.145 -163.3916
519.005673 100.085 -163.5710
522.766602 100.023 -163.7553
526.554785 99.958 -163.9433
530.370418 99.893 -164.1337
534.213700 99.828 -164.3254
538.084833 99.766 -164.5167
541.984018 99.709 -164.7064
545.911457 99.657 -164.8931
549.867357 99.611 -165.0752
553.851922 99.572 -165.2515
557.865362 99.538 -165.4204
561.907884 99.510 -165.5804
565.979700 99.486 -165.7301
570.081022 99.463 -165.8678
574.212064 99.439 -165.9921
578.373042 99.414 -166.1013
582.564171 99.385 -166.1941
586.785671 99.352 -166.2690
591.037762 99.312 -166.3250
595.320665 99.265 -166.3611
599.634604 99.211 -166.3766
603.979804 99.150 -166.3716
608.356491 99.082 -166.3461
612.764893 99.008 -166.3010
617.205240 98.929 -166.2377
621.677763 98.847 -166.1578
626.182696 98.763 -166.0640
630.720274 98.678 -165.9590
635.290733 98.596 -165.8463
639.894312 98.518 -165.7297
644.531250 98.446 -165.6130
649.201789 98.381 -165.4999
653.906173 98.325 -165.3942
658.644647 98.278 -165.2988
663.417457 98.240 -165.2166
668.224854 98.209 -165.1493
673.067086 98.185 -165.0983
677.944408 98.165 -165.0646
682.857073 98.147 -165.0481
687.805336 98.129 -165.0488
692.789457 98.109 -165.0657
697.809695 98.084 -165.0977
702.866312 98.054 -165.1431
707.959571 98.015 -165.1994
713.089738 97.968 -165.2634
718.257080 97.911 -165.3311
723.461867 97.844 -165.3973
728.704370 97.766 -165.4555
733.984862 97.677 -165.4980
739.303619 97.578 -165.5160
744.660918 97.469 -165.4996
750.057038 97.351 -165.4384
755.492260 97.226 -165.3219
760.966869 97.094 -165.1398
766.481148 96.956 -164.8829
772.035387 96.814 -164.5434
777.629873 96.670 -164.1152
783.264900 96.524 -163.5952
788.940760 96.378 -162.9827
794.657750 96.233 -162.2809
800.416168 96.091 -161.4960
806.216313 95.951 -160.6378
812.058489 95.817 -159.7189
817.943000 95.687 -158.7539
823.870152 95.563 -157.7584
829.840255 95.447 -156.7482
835.853619 95.337 -155.7379
841.910559 95.235 -154.7405
848.011390 95.141 -153.7667
854.156430 95.056 -152.8250
860.346000 94.979 -151.9215
866.580422 94.911 -151.0607
872.860020 94.853 -150.2450
879.185124 94.803 -149.4760
885.556062 94.764 -148.7537
891.973166 94.733 -148.0774
898.436771 94.713 -147.4456
904.947215 94.703 -146.8559
911.504835 94.704 -146.3052
918.109975 94.715 -145.7902
924.762978 94.736 -145.3069
931.464192 94.768 -144.8515
938.213966 94.811 -144.4202
945.012651 94.863 -144.0097
951.860602 94.926 -143.6173
958.758176 94.999 -143.2413
965.705733 95.081 -142.8811
972.703635 95.171 -142.5373
979.752246 95.269 -142.2116
986.851935 95.375 -141.9065
994.003071 95.488 -141.6253
1001.206027 95.608 -141.3716
1008.461179 95.734 -141.1490
1015.768904 95.867 -140.9611
1023.129584 96.006 -140.8108
1030.543603 96.151 -140.7005
1038.011347 96.302 -140.6323
1045.533205 96.458 -140.6073
1053.109569 96.621 -140.6260
1060.740836 96.787 -140.6886
1068.427401 96.957 -140.7945
1076.169666 97.129 -140.9427
1083.968035 97.300 -141.1318
1091.822915 97.469 -141.3597
1099.734713 97.634 -141.6240
1107.703844 97.791 -141.9215
1115.730723 97.939 -142.2484
1123.815768 98.075 -142.6000
1131.959400 98.197 -142.9708
1140.162045 98.305 -143.3541
1148.424129 98.398 -143.7421
1156.746083 98.474 -144.1256
1165.128342 98.535 -144.4947
1173.571343 98.582 -144.8384
1182.075524 98.616 -145.1457
1190.641331 98.639 -145.4057
1199.269209 98.654 -145.6086
1207.959608 98.662 -145.7461
1216.712981 98.666 -145.8109
1225.529785 98.669 -145.7973
1234.410479 98.671 -145.7008
1243.355526 98.676 -145.5179
1252.365393 98.683 -145.2472
1261.440549 98.696 -144.8905
1270.581467 98.716 -144.4535
1279.788624 98.746 -143.9469
1289.062500 98.785 -143.3863
1298.403578 98.837 -142.7914
1307.812346 98.901 -142.1842
1317.289293 98.977 -141.5874
1326.834914 99.064 -141.0220
1336.449707 99.161 -140.5060
1346.134173 99.267 -140.0536
1355.888816 99.378 -139.6745
1365.714145 99.493 -139.3749
1375.610673 99.610 -139.1576
1385.578915 99.725 -139.0228
1395.619391 99.838 -138.9689
1405.732624 99.947 -138.9927
1415.919142 100.051 -139.0896
1426.179476 100.148 -139.2542
1436.514160 100.239 -139.4802
1446.923734 100.322 -139.7607
1457.408740 100.399 -140.0883
1467.969724 100.469 -140.4553
1478.607238 100.533 -140.8539
1489.321836 100.591 -141.2760
1500.114076 100.643 -141.7137
1510.984521 100.691 -142.1598
1521.933737 100.734 -142.6075
1532.962297 100.773 -143.0513
1544.070773 100.809 -143.4868
1555.259747 100.841 -143.9115
1566.529800 100.871 -144.3240
1577.881521 100.897 -144.7247
1589.315501 100.919 -145.1148
1600.832336 100.937 -145.4961
1612.432627 100.951 -145.8703
1624.116978 100.958 -146.2375
1635.886000 100.959 -146.5961
1647.740304 100.953 -146.9416
1659.680509 100.939 -147.2672
1671.707238 100.917 -147.5640
1683.821118 100.888 -147.8221
1696.022780 100.853 -148.0315
1708.312860 100.814 -148.1836
1720.692000 100.772 -148.2723
1733.160843 100.730 -148.2948
1745.720041 100.690 -148.2523
1758.370248 100.654 -148.1501
1771.112124 100.623 -147.9971
1783.946332 100.599 -147.8050
1796.873543 100.581 -147.5870
1809.894429 100.569 -147.3564
1823.009670 100.562 -147.1254
1836.219950 100.559 -146.9037
1849.525956 100.558 -146.6978
1862.928384 100.558 -146.5105
1876.427931 100.557 -146.3412
1890.025301 100.555 -146.1864
1903.721204 100.552 -146.0408
1917.516352 100.547 -145.8987
1931.411466 100.540 -145.7552
1945.407270 100.531 -145.6080
1959.504493 100.521 -145.4574
1973.703870 100.508 -145.3060
1988.006142 100.493 -145.1577
2002.412054 100.473 -145.0156
2016.922357 100.446 -144.8808
2031.537808 100.412 -144.7522
2046.259169 100.368 -144.6269
2061.087206 100.314 -144.5005
2076.022694 100.249 -144.3686
2091.066410 100.173 -144.2270
2106.219139 100.087 -144.0723
2121.481671 99.991 -143.9019
2136.854802 99.887 -143.7132
2152.339333 99.775 -143.5029
2167.936071 99.657 -143.2666
2183.645829 99.535 -142.9982
2199.469427 99.409 -142.6909
2215.407689 99.283 -142.3383
2231.461446 99.158 -141.9356
2247.631536 99.038 -141.4820
2263.918800 98.925 -140.9813
2280.324089 98.820 -140.4420
2296.848258 98.726 -139.8760
2313.492167 98.642 -139.2967
2330.256685 98.569 -138.7157
2347.142685 98.505 -138.1419
2364.151049 98.449 -137.5805
2381.282662 98.400 -137.0339
2398.538418 98.357 -136.5029
2415.919216 98.319 -135.9876
2433.425962 98.286 -135.4880
2451.059570 98.257 -135.0045
2468.820958 98.232 -134.5368
2486.711052 98.210 -134.0843
2504.730786 98.192 -133.6451
2522.881098 98.177 -133.2166
2541.162934 98.167 -132.7952
2559.577248 98.160 -132.3769
2578.125000 98.158 -131.9562
2596.807157 98.162 -131.5261
2615.624692 98.172 -131.0764
2634.578586 98.189 -130.5938
2653.669829 98.217 -130.0633
2672.899414 98.257 -129.4701
2692.268345 98.313 -128.8036
2711.777632 98.389 -128.0605
2731.428290 98.488 -127.2474
2751.221345 98.612 -126.3822
2771.157829 98.761 -125.4929
2791.238781 98.935 -124.6140
2811.465248 99.129 -123.7813
2831.838284 99.340 -123.0268
2852.358952 99.560 -122.3742
2873.028321 99.784 -121.8375
2893.847468 100.006 -121.4216
2914.817480 100.223 -121.1235
2935.939449 100.430 -120.9350
2957.214476 100.624 -120.8446
2978.643672 100.804 -120.8388
3000.228152 100.969 -120.9041
3021.969041 101.118 -121.0278
3043.867475 101.252 -121.1984
3065.924593 101.372 -121.4068
3088.141547 101.477 -121.6451
3110.519493 101.570 -121.9069
3133.059600 101.652 -122.1862
3155.763041 101.723 -122.4782
3178.631001 101.786 -122.7789
3201.664672 101.843 -123.0865
3224.865254 101.895 -123.4017
3248.233957 101.943 -123.7282
3271.771999 101.991 -124.0727
3295.480608 102.037 -124.4435
3319.361019 102.083 -124.8494
3343.414477 102.128 -125.2982
3367.642236 102.172 -125.7959
3392.045560 102.213 -126.3469
3416.625721 102.251 -126.9534
3441.383999 102.285 -127.6165
3466.321686 102.313 -128.3360
3491.440082 102.334 -129.1102
3516.740496 102.346 -129.9355
3542.224247 102.347 -130.8047
3567.892664 102.335 -131.7055
3593.747085 102.307 -132.6180
3619.788858 102.261 -133.5134
3646.019340 102.195 -134.3522
3672.439900 102.108 -135.0852
3699.051913 102.003 -135.6561
3725.856768 101.884 -136.0077
3752.855862 101.759 -136.0915
3780.050603 101.640 -135.8806
3807.442408 101.538 -135.3825
3835.032705 101.466 -134.6455
3862.822933 101.432 -133.7536
3890.814540 101.440 -132.8084
3919.008986 101.487 -131.9055
3947.407741 101.567 -131.1153
3976.012284 101.672 -130.4759
4004.824108 101.795 -129.9966
4033.844715 101.928 -129.6686
4063.075616 102.067 -129.4768
4092.518337 102.211 -129.4079
4122.174412 102.355 -129.4535
4152.045387 102.497 -129.6081
4182.132820 102.635 -129.8660
4212.438278 102.766 -130.2181
4242.963342 102.888 -130.6524
4273.709604 102.999 -131.1546
4304.678665 103.098 -131.7106
4335.872141 103.185 -132.3080
4367.291658 103.260 -132.9369
4398.938854 103.322 -133.5893
4430.815378 103.370 -134.2572
4462.922893 103.405 -134.9328
4495.263072 103.426 -135.6081
4527.837601 103.432 -136.2750
4560.648179 103.424 -136.9258
4593.696515 103.400 -137.5522
4626.984334 103.362 -138.1455
4660.513370 103.310 -138.6960
4694.285371 103.245 -139.1929
4728.302098 103.169 -139.6253
4762.565324 103.084 -139.9840
4797.076835 102.993 -140.2641
4831.838432 102.900 -140.4660
4866.851925 102.810 -140.5966
4902.119140 102.725 -140.6677
4937.641916 102.649 -140.6931
4973.422105 102.582 -140.6864
5009.461572 102.527 -140.6589
5045.762195 102.485 -140.6198
5082.325868 102.455 -140.5764
5119.154496 102.439 -140.5354
5156.250000 102.436 -140.5043
5193.614313 102.448 -140.4913
5231.249383 102.474 -140.5049
5269.157173 102.513 -140.5532
5307.339658 102.564 -140.6432
5345.798829 102.628 -140.7811
5384.536691 102.702 -140.9730
5423.555263 102.788 -141.2260
5462.856580 102.884 -141.5479
5502.442691 102.990 -141.9476
5542.315659 103.105 -142.4336
5582.477563 103.230 -143.0132
5622.930497 103.363 -143.6926
5663.676569 103.506 -144.4775
5704.717904 103.657 -145.3745
5746.056642 103.818 -146.3923
5787.694937 103.986 -147.5422
5829.634960 104.161 -148.8376
5871.878898 104.341 -150.2915
5914.428953 104.521 -151.9142
5957.287343 104.696 -153.7116
6000.456303 104.862 -155.6836
6043.938083 105.013 -157.8254
6087.734950 105.144 -160.1275
6131.849187 105.250 -162.5767
6176.283094 105.327 -165.1561
6221.038987 105.370 -167.8450
6266.119200 105.374 -170.6193
6311.526083 105.337 -173.4523
6357.262002 105.256 -176.3157
6403.329344 105.129 -179.1796
6449.730508 104.955 177.9872
6496.467914 104.732 175.2178
6543.543998 104.459 172.5479
6590.961215 104.138 170.0158
6638.722037 103.767 167.6627
6686.828954 103.350 165.5327
6735.284473 102.888 163.6725
6784.091120 102.384 162.1322
6833.251441 101.844 160.9642
6882.767998 101.273 160.2224
6932.643372 100.679 159.9598
6982.880164 100.073 160.2247
7033.480992 99.469 161.0560
7084.448495 98.880 162.4762
7135.785329 98.328 164.4816
7187.494171 97.832 167.0305
7239.577717 97.415 170.0308
7292.038681 97.094 173.3357
7344.879799 96.884 176.7504
7398.103826 96.788 -179.9435
7451.713536 96.799 -176.9550
7505.711724 96.899 -174.4515
7560.101205 97.065 -172.5412
7614.884815 97.271 -171.2695
7670.065409 97.490 -170.6297
7725.645865 97.699 -170.5752
7781.629080 97.878 -171.0324
7838.017972 98.012 -171.9085
7894.815481 98.088 -173.0979
7952.024569 98.099 -174.4869
8009.648217 98.040 -175.9581
8067.689429 97.912 -177.3933
8126.151233 97.718 -178.6737
8185.036674 97.462 -179.6781
8244.348824 97.155 179.7178
8304.090774 96.809 179.6407
8364.265639 96.442 -179.7839
8424.876556 96.078 -178.4439
8485.926684 95.743 -176.2648
8547.419207 95.472 -173.2517
8609.357330 95.297 -169.5376
8671.744282 95.244 -165.4082
8734.583316 95.328 -161.2628
8797.877707 95.543 -157.5124
8861.630756 95.872 -154.4705
8925.845785 96.285 -152.3007
8990.526143 96.752 -151.0316
9055.675202 97.245 -150.6049
9121.296357 97.743 -150.9222
9187.393031 98.230 -151.8727
9253.968668 98.696 -153.3481
9321.026740 99.136 -155.2507
9388.570742 99.547 -157.5008
9456.604196 99.930 -160.0387
9525.130648 100.285 -162.8246
9594.153671 100.611 -165.8352
9663.676863 100.910 -169.0595
9733.703850 101.177 -172.4949
9804.238280 101.408 -176.1420
9875.283832 101.599 -179.9991
9946.844210 101.742 175.9432
10018.923143 101.830 171.7059
10091.524390 101.857 167.3227
10164.651736 101.819 162.8389
10238.308993 101.715 158.3045
10312.500000 101.550 153.7657
10387.228626 101.329 149.2583
10462.498767 101.060 144.8067
10538.314345 100.749 140.4254
10614.679315 100.404 136.1216
10691.597657 100.030 131.8971
10769.073381 99.632 127.7511
10847.110526 99.213 123.6825
10925.713161 98.772 119.6920
11004.885382 98.310 115.7835
11084.631318 97.824 111.9656
11164.955126 97.313 108.2505
11245.860993 96.774 104.6542
11327.353138 96.206 101.1932
11409.435808 95.608 97.8834
11492.113283 94.980 94.7382
11575.389873 94.323 91.7689
11659.269920 93.638 88.9841
11743.757796 92.928 86.3896
11828.857906 92.197 83.9875
11914.574686 91.450 81.7755
12000.912606 90.693 79.7427
12087.876166 89.935 77.8651
12175.469900 89.188 76.0987
12263.698373 88.469 74.3727
12352.566187 87.796 72.5848
12442.077974 87.190 70.6016
12532.238400 86.671 68.2670
12623.052165 86.254 65.4146
12714.524005 85.946 61.8793
12806.658687 85.743 57.5045
12899.461015 85.636 52.1381
12992.935827 85.611 45.6225
13087.087996 85.653 37.7774
13181.922430 85.748 28.3901
13277.444074 85.886 17.2250
13373.657907 86.062 4.0881
13470.568945 86.270 -11.0193
13568.182241 86.506 -27.6861
13666.502883 86.765 -45.0154
13765.535996 87.043 -61.9158
13865.286744 87.335 -77.5806
13965.760328 87.635 -91.7036
14066.961984 87.939 -104.3515
14168.896989 88.245 -115.7493
14271.570658 88.550 -126.1418
14374.988342 88.857 -135.7395
14479.155433 89.171 -144.7081
14584.077362 89.498 -153.1768
14689.759598 89.846 -161.2502
14796.207652 90.224 -169.0181
14903.427072 90.637 -176.5635
15011.423448 91.086 176.0330
15120.202410 91.569 168.6927
15229.769630 92.080 161.3383
15340.130819 92.609 153.8963
15451.291730 93.142 146.2999
15563.258160 93.668 138.4915
15676.035944 94.170 130.4254
15789.630962 94.637 122.0709
15904.049137 95.057 113.4130
16019.296433 95.417 104.4543
16135.378859 95.709 95.2151
16252.302465 95.926 85.7323
16370.073348 96.062 76.0591
16488.697648 96.117 66.2622
16608.181548 96.090 56.4189
16728.531278 95.992 46.6105
16849.753112 95.837 36.9104
16971.853368 95.648 27.3721
17094.838414 95.460 18.0117
17218.714660 95.312 8.7961
17343.488565 95.243 -0.3610
17469.166632 95.286 -9.5918
17595.755415 95.453 -19.0533
17723.261512 95.735 -28.9012
17851.691571 96.108 -39.2677
17981.052287 96.534 -50.2479
18111.350404 96.979 -61.8972
18242.592715 97.409 -74.2377
18374.786062 97.799 -87.2687
18507.937336 98.127 -100.9821
18642.053479 98.380 -115.3801
18777.141484 98.546 -130.5037
18913.208391 98.621 -146.4738
19050.261296 98.607 -163.5555
19188.307342 98.510 177.7911
19327.353727 98.344 157.0316
19467.407699 98.131 134.2552
19608.476560 97.898 111.4376
19750.567664 97.678 92.1702
19893.688419 97.506 79.0129
20037.846286 97.411 72.5291
