* Measurement data measured by REW V5.31.3
* Source: EXCL: Headset (USB-C to 3.5mm Headphone Jack Adapter), MICROPHONE (Master Volume), 0, volume: 0.260
* Format: 256k Log Swept Sine, 1 sweep at -12.0 dBFS with no timing reference
* Dated: Feb 10, 2025 1:42:27 PM
* REW Settings:
*  C-weighting compensation: Off
*  Target level: 75.0 dB
* Note: ; 
* Measurement: Maxwell L4
* Smoothing: 1/6 octave
* Frequency Step: 96 ppo
* Start Frequency: 20.0 Hz
*
* Freq(Hz) SPL(dB) Phase(degrees)
20.141602 97.720 30.1822
20.287556 97.768 29.6361
20.434568 97.828 28.9097
20.582645 97.897 28.0266
20.731796 97.968 27.0123
20.882027 98.038 25.8922
21.033346 98.102 24.6899
21.185763 98.158 23.4267
21.339284 98.205 22.1210
21.493917 98.242 20.7887
21.649671 98.269 19.4429
21.806553 98.288 18.0943
21.964572 98.301 16.7512
22.123737 98.310 15.4199
22.284054 98.318 14.1047
22.445534 98.326 12.8078
22.608183 98.337 11.5296
22.772012 98.354 10.2687
22.937027 98.378 9.0216
23.103238 98.412 7.7838
23.270654 98.457 6.5492
23.439282 98.513 5.3108
23.609133 98.582 4.0616
23.780215 98.663 2.7945
23.952536 98.756 1.5033
24.126106 98.860 0.1828
24.300934 98.973 -1.1702
24.477028 99.094 -2.5572
24.654399 99.222 -3.9776
24.833055 99.352 -5.4287
25.013005 99.484 -6.9061
25.194260 99.616 -8.4038
25.376828 99.745 -9.9148
25.560719 99.870 -11.4318
25.745942 99.990 -12.9473
25.932508 100.103 -14.4547
26.120426 100.210 -15.9483
26.309705 100.311 -17.4243
26.500356 100.405 -18.8802
26.692388 100.492 -20.3159
26.885812 100.574 -21.7329
27.080638 100.651 -23.1345
27.276876 100.723 -24.5251
27.474535 100.791 -25.9103
27.673627 100.857 -27.2956
27.874161 100.922 -28.6867
28.076149 100.987 -30.0884
28.279600 101.054 -31.5045
28.484526 101.125 -32.9377
28.690937 101.202 -34.3892
28.898843 101.288 -35.8587
29.108256 101.383 -37.3449
29.319186 101.489 -38.8454
29.531645 101.606 -40.3567
29.745644 101.733 -41.8751
29.961193 101.868 -43.3962
30.178304 102.008 -44.9158
30.396989 102.151 -46.4294
30.617258 102.291 -47.9326
30.839123 102.425 -49.4212
31.062596 102.547 -50.8914
31.287688 102.653 -52.3396
31.514412 102.740 -53.7623
31.742778 102.804 -55.1568
31.972800 102.842 -56.5208
32.204488 102.853 -57.8524
32.437855 102.835 -59.1503
32.672913 102.788 -60.4141
32.909674 102.713 -61.6435
33.148151 102.611 -62.8390
33.388356 102.485 -64.0015
33.630302 102.337 -65.1324
33.874001 102.172 -66.2333
34.119466 101.992 -67.3060
34.366710 101.803 -68.3526
34.615745 101.608 -69.3755
34.866585 101.412 -70.3766
35.119243 101.220 -71.3583
35.373731 101.036 -72.3224
35.630064 100.864 -73.2706
35.888254 100.708 -74.2042
36.148315 100.571 -75.1241
36.410261 100.456 -76.0312
36.674104 100.366 -76.9257
36.939860 100.302 -77.8083
37.207542 100.265 -78.6794
37.477163 100.256 -79.5400
37.748738 100.275 -80.3916
38.022281 100.321 -81.2364
38.297806 100.393 -82.0774
38.575327 100.491 -82.9184
38.854860 100.612 -83.7641
39.136419 100.756 -84.6191
39.420017 100.920 -85.4884
39.705671 101.103 -86.3761
39.993395 101.303 -87.2858
40.283203 101.518 -88.2196
40.575112 101.747 -89.1787
40.869136 101.986 -90.1628
41.165290 102.234 -91.1709
41.463591 102.490 -92.2013
41.764053 102.751 -93.2524
42.066693 103.014 -94.3226
42.371525 103.278 -95.4107
42.678567 103.540 -96.5159
42.987834 103.797 -97.6380
43.299341 104.048 -98.7767
43.613106 104.289 -99.9318
43.929145 104.518 -101.1030
44.247473 104.733 -102.2899
44.568109 104.932 -103.4917
44.891068 105.114 -104.7079
45.216367 105.278 -105.9377
45.544023 105.422 -107.1805
45.874054 105.546 -108.4356
46.206476 105.650 -109.7023
46.541307 105.732 -110.9798
46.878565 105.794 -112.2670
47.218266 105.834 -113.5624
47.560429 105.854 -114.8640
47.905072 105.854 -116.1693
48.252212 105.835 -117.4750
48.601867 105.798 -118.7773
48.954056 105.743 -120.0720
49.308798 105.672 -121.3547
49.666109 105.587 -122.6213
50.026010 105.490 -123.8679
50.388520 105.382 -125.0915
50.753656 105.265 -126.2893
51.121437 105.141 -127.4594
51.491884 105.012 -128.5999
51.865016 104.879 -129.7092
52.240851 104.744 -130.7857
52.619410 104.608 -131.8283
53.000712 104.472 -132.8356
53.384777 104.337 -133.8067
53.771625 104.203 -134.7407
54.161276 104.071 -135.6370
54.553751 103.941 -136.4953
54.949070 103.811 -137.3156
55.347254 103.682 -138.0984
55.748323 103.552 -138.8443
56.152298 103.422 -139.5548
56.559201 103.290 -140.2312
56.969052 103.158 -140.8753
57.381873 103.023 -141.4886
57.797686 102.887 -142.0726
58.216512 102.749 -142.6284
58.638373 102.611 -143.1572
59.063291 102.471 -143.6599
59.491288 102.331 -144.1373
59.922386 102.191 -144.5907
60.356608 102.051 -145.0212
60.793977 101.912 -145.4303
61.234515 101.773 -145.8192
61.678246 101.636 -146.1890
62.125192 101.500 -146.5406
62.575377 101.367 -146.8748
63.028824 101.236 -147.1921
63.485557 101.109 -147.4931
63.945599 100.985 -147.7784
64.408975 100.866 -148.0489
64.875709 100.752 -148.3054
65.345825 100.643 -148.5491
65.819348 100.540 -148.7813
66.296302 100.443 -149.0030
66.776713 100.353 -149.2155
67.260604 100.268 -149.4199
67.748002 100.190 -149.6171
68.238932 100.118 -149.8083
68.733420 100.052 -149.9944
69.231490 99.991 -150.1766
69.733170 99.936 -150.3563
70.238485 99.885 -150.5349
70.747463 99.839 -150.7140
71.260128 99.797 -150.8950
71.776508 99.759 -151.0789
72.296630 99.725 -151.2663
72.820521 99.694 -151.4575
73.348209 99.667 -151.6525
73.879720 99.642 -151.8514
74.415083 99.619 -152.0545
74.954326 99.598 -152.2624
75.497475 99.579 -152.4759
76.044561 99.561 -152.6961
76.595612 99.543 -152.9239
77.150655 99.524 -153.1598
77.709720 99.505 -153.4043
78.272837 99.484 -153.6577
78.840034 99.461 -153.9198
79.411342 99.434 -154.1907
79.986789 99.405 -154.4697
80.566406 99.371 -154.7564
81.150224 99.333 -155.0500
81.738272 99.292 -155.3495
82.330581 99.248 -155.6542
82.927182 99.201 -155.9631
83.528107 99.153 -156.2753
84.133386 99.105 -156.5898
84.743051 99.059 -156.9053
85.357134 99.018 -157.2209
85.975667 98.985 -157.5356
86.598682 98.963 -157.8485
87.226212 98.956 -158.1593
87.858289 98.966 -158.4676
88.494946 98.996 -158.7730
89.136217 99.048 -159.0752
89.782135 99.123 -159.3736
90.432733 99.221 -159.6676
91.088046 99.340 -159.9562
91.748108 99.476 -160.2384
92.412952 99.625 -160.5129
93.082615 99.782 -160.7783
93.757130 99.942 -161.0333
94.436533 100.099 -161.2766
95.120859 100.249 -161.5072
95.810144 100.387 -161.7243
96.504423 100.511 -161.9277
97.203734 100.619 -162.1172
97.908112 100.709 -162.2929
98.617595 100.782 -162.4550
99.332219 100.838 -162.6042
100.052021 100.881 -162.7412
100.777039 100.910 -162.8667
101.507311 100.930 -162.9818
102.242875 100.941 -163.0871
102.983769 100.946 -163.1833
103.730032 100.946 -163.2708
104.481702 100.941 -163.3501
105.238820 100.933 -163.4215
106.001424 100.919 -163.4857
106.769554 100.900 -163.5435
107.543250 100.874 -163.5958
108.322553 100.839 -163.6434
109.107503 100.795 -163.6872
109.898141 100.739 -163.7277
110.694508 100.671 -163.7656
111.496646 100.591 -163.8015
112.304596 100.500 -163.8361
113.118402 100.398 -163.8703
113.938104 100.287 -163.9053
114.763747 100.169 -163.9421
115.595372 100.046 -163.9816
116.433024 99.920 -164.0244
117.276746 99.793 -164.0709
118.126581 99.668 -164.1212
118.982575 99.545 -164.1756
119.844772 99.425 -164.2344
120.713217 99.309 -164.2980
121.587954 99.196 -164.3667
122.469031 99.085 -164.4407
123.356492 98.976 -164.5201
124.250384 98.866 -164.6051
125.150753 98.756 -164.6960
126.057647 98.642 -164.7934
126.971113 98.524 -164.8978
127.891198 98.400 -165.0098
128.817950 98.269 -165.1297
129.751418 98.132 -165.2577
130.691651 97.987 -165.3938
131.638696 97.835 -165.5381
132.592604 97.679 -165.6904
133.553425 97.519 -165.8505
134.521208 97.358 -166.0178
135.496004 97.199 -166.1913
136.477864 97.044 -166.3701
137.466839 96.898 -166.5530
138.462981 96.764 -166.7385
139.466340 96.643 -166.9254
140.476971 96.539 -167.1117
141.494925 96.451 -167.2958
142.520256 96.378 -167.4754
143.553016 96.321 -167.6483
144.593260 96.274 -167.8124
145.641043 96.236 -167.9654
146.696418 96.203 -168.1052
147.759441 96.170 -168.2298
148.830166 96.134 -168.3372
149.908651 96.092 -168.4256
150.994951 96.042 -168.4927
152.089123 95.984 -168.5364
153.191223 95.916 -168.5546
154.301310 95.841 -168.5449
155.419441 95.758 -168.5053
156.545674 95.670 -168.4341
157.680069 95.579 -168.3297
158.822683 95.487 -168.1911
159.973578 95.395 -168.0177
161.132813 95.304 -167.8091
162.300447 95.218 -167.5655
163.476543 95.135 -167.2872
164.661162 95.057 -166.9752
165.854364 94.985 -166.6307
167.056213 94.919 -166.2556
168.266772 94.860 -165.8518
169.486102 94.808 -165.4217
170.714268 94.765 -164.9679
171.951334 94.730 -164.4929
173.197364 94.705 -163.9995
174.452424 94.689 -163.4906
175.716578 94.682 -162.9689
176.989893 94.684 -162.4377
178.272434 94.695 -161.9001
179.564270 94.712 -161.3596
180.865467 94.735 -160.8193
182.176092 94.762 -160.2825
183.496216 94.792 -159.7518
184.825905 94.824 -159.2298
186.165229 94.857 -158.7185
187.514259 94.891 -158.2196
188.873065 94.925 -157.7346
190.241717 94.959 -157.2646
191.620287 94.993 -156.8104
193.008847 95.028 -156.3727
194.407468 95.063 -155.9519
195.816225 95.099 -155.5482
197.235190 95.136 -155.1613
198.664438 95.173 -154.7902
200.104042 95.210 -154.4343
201.554078 95.247 -154.0923
203.014622 95.283 -153.7633
204.485750 95.317 -153.4459
205.967538 95.348 -153.1392
207.460064 95.376 -152.8420
208.963405 95.400 -152.5532
210.477640 95.420 -152.2718
212.002848 95.437 -151.9969
213.539108 95.451 -151.7275
215.086500 95.461 -151.4628
216.645105 95.469 -151.2016
218.215005 95.474 -150.9427
219.796281 95.477 -150.6846
221.389015 95.477 -150.4259
222.993292 95.474 -150.1651
224.609193 95.467 -149.9009
226.236804 95.457 -149.6323
227.876209 95.441 -149.3583
229.527494 95.421 -149.0784
231.190745 95.395 -148.7919
232.866048 95.364 -148.4987
234.553491 95.328 -148.1984
236.253163 95.289 -147.8911
237.965150 95.246 -147.5771
239.689544 95.200 -147.2569
241.426433 95.154 -146.9312
243.175909 95.108 -146.6006
244.938062 95.064 -146.2655
246.712984 95.021 -145.9261
248.500768 94.982 -145.5823
250.301507 94.948 -145.2340
252.115295 94.919 -144.8811
253.942226 94.896 -144.5234
255.782396 94.880 -144.1606
257.635901 94.872 -143.7928
259.502837 94.873 -143.4212
261.383301 94.882 -143.0479
263.277392 94.901 -142.6766
265.185209 94.928 -142.3110
267.106850 94.965 -141.9544
269.042417 95.010 -141.6089
270.992009 95.062 -141.2751
272.955729 95.123 -140.9528
274.933678 95.190 -140.6420
276.925961 95.265 -140.3439
278.932681 95.347 -140.0611
280.953942 95.435 -139.7969
282.989850 95.530 -139.5546
285.040511 95.631 -139.3371
287.106032 95.738 -139.1464
289.186521 95.851 -138.9841
291.282086 95.970 -138.8508
293.392836 96.095 -138.7469
295.518881 96.227 -138.6725
297.660333 96.363 -138.6272
299.817302 96.504 -138.6106
301.989902 96.647 -138.6224
304.178245 96.792 -138.6620
306.382446 96.936 -138.7291
308.602620 97.076 -138.8234
310.838882 97.211 -138.9445
313.091348 97.338 -139.0920
315.360137 97.456 -139.2648
317.645367 97.564 -139.4613
319.947156 97.659 -139.6792
322.265625 97.740 -139.9154
324.600895 97.808 -140.1661
326.953086 97.860 -140.4271
329.322323 97.897 -140.6936
331.708729 97.919 -140.9606
334.112427 97.925 -141.2231
336.533543 97.916 -141.4759
338.972204 97.893 -141.7141
341.428536 97.856 -141.9330
343.902668 97.807 -142.1287
346.394729 97.747 -142.2974
348.904848 97.679 -142.4363
351.433156 97.604 -142.5430
353.979786 97.527 -142.6160
356.544869 97.450 -142.6546
359.128540 97.376 -142.6585
361.730934 97.309 -142.6285
364.352185 97.253 -142.5661
366.992431 97.212 -142.4735
369.651810 97.188 -142.3534
372.330459 97.183 -142.2092
375.028519 97.200 -142.0444
377.746130 97.237 -141.8628
380.483434 97.296 -141.6682
383.240574 97.374 -141.4644
386.017693 97.469 -141.2549
388.814937 97.578 -141.0430
391.632450 97.698 -140.8315
394.470380 97.827 -140.6228
397.328875 97.962 -140.4189
400.208084 98.100 -140.2216
403.108157 98.239 -140.0323
406.029245 98.378 -139.8523
408.971500 98.517 -139.6827
411.935076 98.654 -139.5248
414.920127 98.790 -139.3797
417.926810 98.925 -139.2483
420.955280 99.059 -139.1315
424.005695 99.194 -139.0300
427.078215 99.328 -138.9442
430.173000 99.464 -138.8745
433.290211 99.599 -138.8210
436.430010 99.735 -138.7838
439.592562 99.870 -138.7629
442.778031 100.003 -138.7581
445.986583 100.132 -138.7692
449.218386 100.256 -138.7962
452.473607 100.373 -138.8386
455.752418 100.481 -138.8962
459.054987 100.580 -138.9685
462.381489 100.668 -139.0550
465.732096 100.745 -139.1550
469.106983 100.810 -139.2678
472.506325 100.864 -139.3927
475.930301 100.907 -139.5287
479.379088 100.940 -139.6752
482.852867 100.964 -139.8313
486.351817 100.980 -139.9961
489.876123 100.989 -140.1691
493.425968 100.991 -140.3493
497.001536 100.989 -140.5363
500.603014 100.981 -140.7295
504.230589 100.968 -140.9284
507.884452 100.951 -141.1331
511.564792 100.930 -141.3434
515.271802 100.905 -141.5598
519.005673 100.876 -141.7825
522.766602 100.844 -142.0121
526.554785 100.811 -142.2490
530.370418 100.778 -142.4935
534.213700 100.746 -142.7459
538.084833 100.718 -143.0064
541.984018 100.694 -143.2749
545.911457 100.677 -143.5514
549.867357 100.666 -143.8356
553.851922 100.662 -144.1271
557.865362 100.663 -144.4252
561.907884 100.668 -144.7292
565.979700 100.676 -145.0379
570.081022 100.683 -145.3498
574.212064 100.689 -145.6631
578.373042 100.690 -145.9754
582.564171 100.684 -146.2845
586.785671 100.671 -146.5874
591.037762 100.649 -146.8816
595.320665 100.617 -147.1640
599.634604 100.574 -147.4319
603.979804 100.521 -147.6825
608.356491 100.457 -147.9133
612.764893 100.384 -148.1223
617.205240 100.303 -148.3081
621.677763 100.214 -148.4700
626.182696 100.121 -148.6084
630.720274 100.023 -148.7246
635.290733 99.925 -148.8208
639.894312 99.828 -148.8996
644.531250 99.733 -148.9638
649.201789 99.642 -149.0163
653.906173 99.557 -149.0596
658.644647 99.479 -149.0956
663.417457 99.406 -149.1257
668.224854 99.338 -149.1501
673.067086 99.275 -149.1684
677.944408 99.213 -149.1792
682.857073 99.152 -149.1801
687.805336 99.090 -149.1680
692.789457 99.024 -149.1390
697.809695 98.954 -149.0886
702.866312 98.877 -149.0119
707.959571 98.793 -148.9036
713.089738 98.702 -148.7584
718.257080 98.603 -148.5708
723.461867 98.497 -148.3361
728.704370 98.384 -148.0494
733.984862 98.267 -147.7069
739.303619 98.145 -147.3051
744.660918 98.022 -146.8419
750.057038 97.898 -146.3160
755.492260 97.775 -145.7278
760.966869 97.656 -145.0791
766.481148 97.541 -144.3738
772.035387 97.431 -143.6175
777.629873 97.328 -142.8176
783.264900 97.230 -141.9825
788.940760 97.139 -141.1217
794.657750 97.053 -140.2449
800.416168 96.971 -139.3617
806.216313 96.893 -138.4810
812.058489 96.818 -137.6110
817.943000 96.745 -136.7587
823.870152 96.673 -135.9303
829.840255 96.602 -135.1310
835.853619 96.532 -134.3650
841.910559 96.462 -133.6359
848.011390 96.394 -132.9463
854.156430 96.327 -132.2978
860.346000 96.262 -131.6910
866.580422 96.198 -131.1249
872.860020 96.136 -130.5969
879.185124 96.075 -130.1023
885.556062 96.016 -129.6346
891.973166 95.958 -129.1853
898.436771 95.903 -128.7445
904.947215 95.851 -128.3018
911.504835 95.805 -127.8469
918.109975 95.765 -127.3709
924.762978 95.734 -126.8672
931.464192 95.714 -126.3324
938.213966 95.707 -125.7672
945.012651 95.714 -125.1758
951.860602 95.737 -124.5659
958.758176 95.775 -123.9477
965.705733 95.829 -123.3327
972.703635 95.897 -122.7326
979.752246 95.978 -122.1580
986.851935 96.071 -121.6182
994.003071 96.174 -121.1205
1001.206027 96.285 -120.6701
1008.461179 96.404 -120.2705
1015.768904 96.529 -119.9234
1023.129584 96.660 -119.6296
1030.543603 96.796 -119.3889
1038.011347 96.937 -119.2006
1045.533205 97.081 -119.0634
1053.109569 97.230 -118.9758
1060.740836 97.381 -118.9359
1068.427401 97.534 -118.9414
1076.169666 97.686 -118.9894
1083.968035 97.835 -119.0763
1091.822915 97.981 -119.1978
1099.734713 98.118 -119.3485
1107.703844 98.247 -119.5217
1115.730723 98.363 -119.7096
1123.815768 98.465 -119.9026
1131.959400 98.552 -120.0892
1140.162045 98.622 -120.2564
1148.424129 98.675 -120.3896
1156.746083 98.712 -120.4735
1165.128342 98.734 -120.4931
1173.571343 98.745 -120.4346
1182.075524 98.748 -120.2866
1190.641331 98.746 -120.0417
1199.269209 98.743 -119.6969
1207.959608 98.744 -119.2536
1216.712981 98.751 -118.7178
1225.529785 98.768 -118.0991
1234.410479 98.796 -117.4101
1243.355526 98.835 -116.6657
1252.365393 98.888 -115.8825
1261.440549 98.952 -115.0784
1270.581467 99.028 -114.2719
1279.788624 99.113 -113.4805
1289.062500 99.207 -112.7198
1298.403578 99.307 -112.0023
1307.812346 99.412 -111.3366
1317.289293 99.521 -110.7281
1326.834914 99.632 -110.1793
1336.449707 99.745 -109.6906
1346.134173 99.858 -109.2615
1355.888816 99.970 -108.8908
1365.714145 100.082 -108.5773
1375.610673 100.191 -108.3201
1385.578915 100.296 -108.1181
1395.619391 100.398 -107.9706
1405.732624 100.495 -107.8762
1415.919142 100.586 -107.8335
1426.179476 100.672 -107.8404
1436.514160 100.751 -107.8946
1446.923734 100.825 -107.9930
1457.408740 100.892 -108.1321
1467.969724 100.953 -108.3076
1478.607238 101.007 -108.5143
1489.321836 101.055 -108.7462
1500.114076 101.096 -108.9960
1510.984521 101.130 -109.2549
1521.933737 101.156 -109.5127
1532.962297 101.175 -109.7582
1544.070773 101.187 -109.9797
1555.259747 101.191 -110.1660
1566.529800 101.188 -110.3073
1577.881521 101.180 -110.3970
1589.315501 101.168 -110.4314
1600.832336 101.151 -110.4094
1612.432627 101.132 -110.3320
1624.116978 101.112 -110.2011
1635.886000 101.090 -110.0193
1647.740304 101.068 -109.7900
1659.680509 101.047 -109.5172
1671.707238 101.029 -109.2059
1683.821118 101.014 -108.8623
1696.022780 101.003 -108.4934
1708.312860 100.997 -108.1068
1720.692000 100.995 -107.7104
1733.160843 100.999 -107.3115
1745.720041 101.007 -106.9164
1758.370248 101.017 -106.5294
1771.112124 101.030 -106.1523
1783.946332 101.043 -105.7847
1796.873543 101.054 -105.4237
1809.894429 101.064 -105.0654
1823.009670 101.071 -104.7055
1836.219950 101.076 -104.3408
1849.525956 101.078 -103.9703
1862.928384 101.077 -103.5954
1876.427931 101.074 -103.2191
1890.025301 101.069 -102.8442
1903.721204 101.061 -102.4722
1917.516352 101.049 -102.1021
1931.411466 101.033 -101.7302
1945.407270 101.012 -101.3511
1959.504493 100.987 -100.9590
1973.703870 100.956 -100.5485
1988.006142 100.919 -100.1153
2002.412054 100.876 -99.6566
2016.922357 100.826 -99.1697
2031.537808 100.768 -98.6521
2046.259169 100.701 -98.1001
2061.087206 100.626 -97.5093
2076.022694 100.543 -96.8749
2091.066410 100.451 -96.1928
2106.219139 100.354 -95.4608
2121.481671 100.252 -94.6795
2136.854802 100.147 -93.8525
2152.339333 100.043 -92.9863
2167.936071 99.941 -92.0891
2183.645829 99.844 -91.1699
2199.469427 99.753 -90.2389
2215.407689 99.670 -89.3068
2231.461446 99.596 -88.3850
2247.631536 99.533 -87.4853
2263.918800 99.479 -86.6184
2280.324089 99.433 -85.7929
2296.848258 99.395 -85.0141
2313.492167 99.362 -84.2832
2330.256685 99.332 -83.5981
2347.142685 99.303 -82.9531
2364.151049 99.274 -82.3407
2381.282662 99.243 -81.7523
2398.538418 99.209 -81.1793
2415.919216 99.173 -80.6135
2433.425962 99.132 -80.0473
2451.059570 99.089 -79.4725
2468.820958 99.041 -78.8801
2486.711052 98.990 -78.2583
2504.730786 98.936 -77.5921
2522.881098 98.880 -76.8628
2541.162934 98.824 -76.0492
2559.577248 98.771 -75.1293
2578.125000 98.725 -74.0848
2596.807157 98.693 -72.9048
2615.624692 98.681 -71.5902
2634.578586 98.695 -70.1565
2653.669829 98.740 -68.6333
2672.899414 98.821 -67.0619
2692.268345 98.937 -65.4897
2711.777632 99.087 -63.9634
2731.428290 99.267 -62.5240
2751.221345 99.471 -61.2022
2771.157829 99.694 -60.0171
2791.238781 99.928 -58.9771
2811.465248 100.168 -58.0817
2831.838284 100.408 -57.3238
2852.358952 100.643 -56.6920
2873.028321 100.869 -56.1730
2893.847468 101.084 -55.7528
2914.817480 101.283 -55.4167
2935.939449 101.466 -55.1499
2957.214476 101.630 -54.9360
2978.643672 101.775 -54.7576
3000.228152 101.899 -54.5954
3021.969041 102.004 -54.4293
3043.867475 102.091 -54.2396
3065.924593 102.162 -54.0095
3088.141547 102.221 -53.7274
3110.519493 102.273 -53.3897
3133.059600 102.321 -53.0023
3155.763041 102.370 -52.5805
3178.631001 102.422 -52.1473
3201.664672 102.479 -51.7293
3224.865254 102.541 -51.3533
3248.233957 102.608 -51.0423
3271.771999 102.678 -50.8140
3295.480608 102.749 -50.6801
3319.361019 102.818 -50.6475
3343.414477 102.883 -50.7188
3367.642236 102.940 -50.8929
3392.045560 102.987 -51.1658
3416.625721 103.020 -51.5286
3441.383999 103.035 -51.9666
3466.321686 103.029 -52.4562
3491.440082 102.998 -52.9627
3516.740496 102.938 -53.4389
3542.224247 102.849 -53.8249
3567.892664 102.731 -54.0509
3593.747085 102.588 -54.0414
3619.788858 102.428 -53.7242
3646.019340 102.262 -53.0437
3672.439900 102.103 -51.9759
3699.051913 101.966 -50.5419
3725.856768 101.866 -48.8099
3752.855862 101.812 -46.8835
3780.050603 101.808 -44.8770
3807.442408 101.853 -42.8900
3835.032705 101.943 -40.9921
3862.822933 102.073 -39.2232
3890.814540 102.236 -37.6038
3919.008986 102.428 -36.1472
3947.407741 102.643 -34.8665
3976.012284 102.875 -33.7736
4004.824108 103.120 -32.8759
4033.844715 103.370 -32.1732
4063.075616 103.622 -31.6593
4092.518337 103.871 -31.3250
4122.174412 104.115 -31.1617
4152.045387 104.348 -31.1625
4182.132820 104.569 -31.3208
4212.438278 104.773 -31.6266
4242.963342 104.957 -32.0633
4273.709604 105.118 -32.6075
4304.678665 105.254 -33.2305
4335.872141 105.365 -33.9036
4367.291658 105.453 -34.6024
4398.938854 105.518 -35.3083
4430.815378 105.562 -36.0083
4462.922893 105.584 -36.6920
4495.263072 105.586 -37.3490
4527.837601 105.566 -37.9673
4560.648179 105.525 -38.5334
4593.696515 105.464 -39.0343
4626.984334 105.385 -39.4601
4660.513370 105.290 -39.8045
4694.285371 105.181 -40.0655
4728.302098 105.061 -40.2433
4762.565324 104.930 -40.3396
4797.076835 104.792 -40.3555
4831.838432 104.647 -40.2919
4866.851925 104.498 -40.1495
4902.119140 104.346 -39.9295
4937.641916 104.194 -39.6338
4973.422105 104.044 -39.2640
5009.461572 103.897 -38.8218
5045.762195 103.756 -38.3084
5082.325868 103.622 -37.7261
5119.154496 103.497 -37.0794
5156.250000 103.384 -36.3775
5193.614313 103.284 -35.6340
5231.249383 103.199 -34.8666
5269.157173 103.129 -34.0942
5307.339658 103.074 -33.3349
5345.798829 103.031 -32.6037
5384.536691 103.001 -31.9127
5423.555263 102.981 -31.2715
5462.856580 102.970 -30.6890
5502.442691 102.967 -30.1739
5542.315659 102.971 -29.7349
5582.477563 102.981 -29.3807
5622.930497 102.995 -29.1203
5663.676569 103.013 -28.9622
5704.717904 103.031 -28.9149
5746.056642 103.050 -28.9855
5787.694937 103.065 -29.1779
5829.634960 103.074 -29.4916
5871.878898 103.074 -29.9210
5914.428953 103.061 -30.4559
5957.287343 103.032 -31.0815
6000.456303 102.984 -31.7794
6043.938083 102.913 -32.5279
6087.734950 102.816 -33.3018
6131.849187 102.691 -34.0723
6176.283094 102.533 -34.8067
6221.038987 102.342 -35.4674
6266.119200 102.115 -36.0119
6311.526083 101.851 -36.3930
6357.262002 101.550 -36.5599
6403.329344 101.215 -36.4590
6449.730508 100.847 -36.0364
6496.467914 100.452 -35.2385
6543.543998 100.036 -34.0156
6590.961215 99.605 -32.3245
6638.722037 99.170 -30.1328
6686.828954 98.742 -27.4239
6735.284473 98.331 -24.2012
6784.091120 97.952 -20.4906
6833.251441 97.617 -16.3395
6882.767998 97.339 -11.8136
6932.643372 97.128 -6.9924
6982.880164 96.994 -1.9657
7033.480992 96.945 3.1700
7084.448495 96.983 8.3161
7135.785329 97.110 13.3763
7187.494171 97.320 18.2605
7239.577717 97.608 22.8876
7292.038681 97.964 27.1864
7344.879799 98.378 31.0979
7398.103826 98.836 34.5753
7451.713536 99.328 37.5854
7505.711724 99.841 40.1076
7560.101205 100.364 42.1330
7614.884815 100.887 43.6623
7670.065409 101.399 44.7039
7725.645865 101.891 45.2737
7781.629080 102.353 45.3953
7838.017972 102.776 45.1021
7894.815481 103.151 44.4390
7952.024569 103.471 43.4646
8009.648217 103.727 42.2525
8067.689429 103.914 40.8937
8126.151233 104.028 39.4979
8185.036674 104.067 38.1933
8244.348824 104.035 37.1216
8304.090774 103.942 36.4270
8364.265639 103.802 36.2367
8424.876556 103.637 36.6319
8485.926684 103.474 37.6171
8547.419207 103.340 39.0976
8609.357330 103.259 40.8840
8671.744282 103.244 42.7320
8734.583316 103.299 44.4040
8797.877707 103.414 45.7250
8861.630756 103.576 46.6060
8925.845785 103.766 47.0374
8990.526143 103.969 47.0641
9055.675202 104.171 46.7589
9121.296357 104.365 46.2014
9187.393031 104.547 45.4650
9253.968668 104.715 44.6096
9321.026740 104.869 43.6792
9388.570742 105.011 42.7020
9456.604196 105.142 41.6922
9525.130648 105.262 40.6528
9594.153671 105.373 39.5787
9663.676863 105.474 38.4592
9733.703850 105.565 37.2814
9804.238280 105.647 36.0318
9875.283832 105.718 34.6978
9946.844210 105.779 33.2665
10018.923143 105.830 31.7241
10091.524390 105.871 30.0564
10164.651736 105.901 28.2513
10238.308993 105.919 26.3015
10312.500000 105.923 24.2058
10387.228626 105.912 21.9696
10462.498767 105.884 19.6031
10538.314345 105.839 17.1199
10614.679315 105.775 14.5338
10691.597657 105.693 11.8571
10769.073381 105.590 9.0997
10847.110526 105.466 6.2699
10925.713161 105.317 3.3757
11004.885382 105.141 0.4278
11084.631318 104.934 -2.5598
11164.955126 104.692 -5.5691
11245.860993 104.414 -8.5803
11327.353138 104.096 -11.5727
11409.435808 103.738 -14.5248
11492.113283 103.339 -17.4155
11575.389873 102.900 -20.2239
11659.269920 102.424 -22.9331
11743.757796 101.914 -25.5334
11828.857906 101.375 -28.0251
11914.574686 100.815 -30.4222
12000.912606 100.242 -32.7537
12087.876166 99.664 -35.0639
12175.469900 99.091 -37.4095
12263.698373 98.530 -39.8554
12352.566187 97.987 -42.4683
12442.077974 97.465 -45.3120
12532.238400 96.966 -48.4433
12623.052165 96.487 -51.9116
12714.524005 96.024 -55.7599
12806.658687 95.573 -60.0282
12899.461015 95.130 -64.7581
12992.935827 94.689 -69.9968
13087.087996 94.249 -75.8023
13181.922430 93.809 -82.2458
13277.444074 93.368 -89.4134
13373.657907 92.929 -97.4041
13470.568945 92.497 -106.3194
13568.182241 92.077 -116.2401
13666.502883 91.677 -127.1844
13765.535996 91.307 -139.0528
13865.286744 90.975 -151.5835
13965.760328 90.692 -164.3647
14066.961984 90.464 -176.9279
14168.896989 90.295 171.1212
14271.570658 90.185 160.0154
14374.988342 90.128 149.8217
14479.155433 90.118 140.4897
14584.077362 90.143 131.9102
14689.759598 90.192 123.9575
14796.207652 90.252 116.5131
14903.427072 90.314 109.4751
15011.423448 90.370 102.7606
15120.202410 90.412 96.3038
15229.769630 90.436 90.0531
15340.130819 90.439 83.9678
15451.291730 90.417 78.0162
15563.258160 90.369 72.1740
15676.035944 90.293 66.4235
15789.630962 90.188 60.7540
15904.049137 90.051 55.1625
16019.296433 89.883 49.6541
16135.378859 89.684 44.2430
16252.302465 89.457 38.9512
16370.073348 89.211 33.8068
16488.697648 88.959 28.8404
16608.181548 88.723 24.0784
16728.531278 88.533 19.5367
16849.753112 88.425 15.2132
16971.853368 88.436 11.0831
17094.838414 88.598 7.0970
17218.714660 88.925 3.1815
17343.488565 89.410 -0.7567
17469.166632 90.028 -4.8298
17595.755415 90.744 -9.1693
17723.261512 91.519 -13.9254
17851.691571 92.318 -19.2618
17981.052287 93.110 -25.3380
18111.350404 93.871 -32.2849
18242.592715 94.582 -40.1898
18374.786062 95.230 -49.0969
18507.937336 95.804 -59.0311
18642.053479 96.299 -70.0406
18777.141484 96.711 -82.2674
18913.208391 97.041 -96.0643
19050.261296 97.292 -112.1995
19188.307342 97.472 -132.1196
19327.353727 97.588 -157.6130
19467.407699 97.655 172.4333
19608.476560 97.685 145.1957
19750.567664 97.692 126.1201
19893.688419 97.689 114.8179
20037.846286 97.685 109.6157
