* Measurement data measured by REW V5.31.3
* Source: EXCL: Headset (USB-C to 3.5mm Headphone Jack Adapter), MICROPHONE (Master Volume), 0, volume: 0.260
* Format: 256k Log Swept Sine, 1 sweep at -12.0 dBFS with no timing reference
* Dated: Feb 10, 2025 1:43:24 PM
* REW Settings:
*  C-weighting compensation: Off
*  Target level: 75.0 dB
* Note: ; 
* Measurement: Maxwell L5
* Smoothing: 1/6 octave
* Frequency Step: 96 ppo
* Start Frequency: 20.0 Hz
*
* Freq(Hz) SPL(dB) Phase(degrees)
20.141602 98.285 22.9711
20.287556 98.338 22.5406
20.434568 98.407 21.9726
20.582645 98.486 21.2901
20.731796 98.571 20.5169
20.882027 98.656 19.6752
21.033346 98.737 18.7836
21.185763 98.812 17.8568
21.339284 98.879 16.9051
21.493917 98.937 15.9349
21.649671 98.985 14.9493
21.806553 99.025 13.9483
21.964572 99.057 12.9297
22.123737 99.084 11.8897
22.284054 99.108 10.8237
22.445534 99.131 9.7266
22.608183 99.153 8.5934
22.772012 99.179 7.4202
22.937027 99.209 6.2042
23.103238 99.244 4.9443
23.270654 99.286 3.6412
23.439282 99.336 2.2978
23.609133 99.394 0.9186
23.780215 99.462 -0.4902
23.952536 99.538 -1.9214
24.126106 99.624 -3.3676
24.300934 99.718 -4.8212
24.477028 99.820 -6.2758
24.654399 99.929 -7.7261
24.833055 100.044 -9.1684
25.013005 100.163 -10.6010
25.194260 100.284 -12.0237
25.376828 100.406 -13.4379
25.560719 100.526 -14.8462
25.745942 100.644 -16.2517
25.932508 100.757 -17.6579
26.120426 100.864 -19.0679
26.309705 100.965 -20.4844
26.500356 101.058 -21.9091
26.692388 101.144 -23.3429
26.885812 101.222 -24.7856
27.080638 101.293 -26.2361
27.276876 101.357 -27.6924
27.474535 101.414 -29.1518
27.673627 101.467 -30.6109
27.874161 101.517 -32.0660
28.076149 101.566 -33.5134
28.279600 101.616 -34.9494
28.484526 101.671 -36.3710
28.690937 101.734 -37.7763
28.898843 101.808 -39.1646
29.108256 101.895 -40.5368
29.319186 101.999 -41.8959
29.531645 102.120 -43.2459
29.745644 102.257 -44.5925
29.961193 102.409 -45.9417
30.178304 102.573 -47.2992
30.396989 102.743 -48.6697
30.617258 102.915 -50.0562
30.839123 103.083 -51.4590
31.062596 103.240 -52.8764
31.287688 103.380 -54.3042
31.514412 103.499 -55.7364
31.742778 103.591 -57.1662
31.972800 103.655 -58.5867
32.204488 103.687 -59.9914
32.437855 103.687 -61.3750
32.672913 103.654 -62.7338
32.909674 103.588 -64.0653
33.148151 103.493 -65.3683
33.388356 103.369 -66.6425
33.630302 103.220 -67.8877
33.874001 103.050 -69.1036
34.119466 102.862 -70.2895
34.366710 102.660 -71.4440
34.615745 102.449 -72.5654
34.866585 102.233 -73.6517
35.119243 102.018 -74.7012
35.373731 101.807 -75.7128
35.630064 101.606 -76.6863
35.888254 101.419 -77.6228
36.148315 101.251 -78.5245
36.410261 101.104 -79.3947
36.674104 100.982 -80.2378
36.939860 100.888 -81.0583
37.207542 100.823 -81.8609
37.477163 100.787 -82.6504
37.748738 100.781 -83.4307
38.022281 100.805 -84.2051
38.297806 100.857 -84.9759
38.575327 100.936 -85.7450
38.854860 101.041 -86.5134
39.136419 101.169 -87.2818
39.420017 101.320 -88.0507
39.705671 101.493 -88.8212
39.993395 101.685 -89.5947
40.283203 101.896 -90.3736
40.575112 102.124 -91.1609
40.869136 102.367 -91.9606
41.165290 102.625 -92.7776
41.463591 102.894 -93.6169
41.764053 103.172 -94.4840
42.066693 103.456 -95.3845
42.371525 103.744 -96.3237
42.678567 104.033 -97.3063
42.987834 104.318 -98.3364
43.299341 104.597 -99.4167
43.613106 104.866 -100.5488
43.929145 105.123 -101.7325
44.247473 105.365 -102.9664
44.568109 105.589 -104.2475
44.891068 105.793 -105.5716
45.216367 105.976 -106.9337
45.544023 106.135 -108.3279
45.874054 106.270 -109.7480
46.206476 106.380 -111.1870
46.541307 106.465 -112.6372
46.878565 106.523 -114.0905
47.218266 106.557 -115.5388
47.560429 106.565 -116.9739
47.905072 106.551 -118.3883
48.252212 106.515 -119.7760
48.601867 106.458 -121.1324
48.954056 106.385 -122.4549
49.308798 106.296 -123.7427
49.666109 106.195 -124.9965
50.026010 106.083 -126.2182
50.388520 105.963 -127.4101
50.753656 105.837 -128.5746
51.121437 105.707 -129.7138
51.491884 105.574 -130.8293
51.865016 105.441 -131.9220
52.240851 105.307 -132.9920
52.619410 105.174 -134.0389
53.000712 105.042 -135.0616
53.384777 104.912 -136.0586
53.771625 104.782 -137.0278
54.161276 104.654 -137.9671
54.553751 104.526 -138.8739
54.949070 104.397 -139.7462
55.347254 104.268 -140.5816
55.748323 104.136 -141.3784
56.152298 104.003 -142.1348
56.559201 103.866 -142.8497
56.969052 103.727 -143.5225
57.381873 103.585 -144.1529
57.797686 103.440 -144.7408
58.216512 103.292 -145.2869
58.638373 103.143 -145.7917
59.063291 102.992 -146.2567
59.491288 102.841 -146.6837
59.922386 102.691 -147.0753
60.356608 102.542 -147.4348
60.793977 102.396 -147.7657
61.234515 102.252 -148.0718
61.678246 102.112 -148.3565
62.125192 101.976 -148.6231
62.575377 101.845 -148.8744
63.028824 101.718 -149.1128
63.485557 101.597 -149.3404
63.945599 101.481 -149.5592
64.408975 101.370 -149.7710
64.875709 101.266 -149.9775
65.345825 101.168 -150.1804
65.819348 101.076 -150.3811
66.296302 100.991 -150.5809
66.776713 100.912 -150.7806
67.260604 100.839 -150.9810
67.748002 100.772 -151.1826
68.238932 100.711 -151.3859
68.733420 100.655 -151.5911
69.231490 100.604 -151.7981
69.733170 100.557 -152.0069
70.238485 100.515 -152.2173
70.747463 100.477 -152.4293
71.260128 100.442 -152.6430
71.776508 100.410 -152.8589
72.296630 100.381 -153.0779
72.820521 100.354 -153.3008
73.348209 100.330 -153.5287
73.879720 100.308 -153.7623
74.415083 100.287 -154.0023
74.954326 100.268 -154.2490
75.497475 100.250 -154.5024
76.044561 100.232 -154.7623
76.595612 100.214 -155.0284
77.150655 100.196 -155.2999
77.709720 100.177 -155.5765
78.272837 100.156 -155.8578
78.840034 100.133 -156.1435
79.411342 100.108 -156.4337
79.986789 100.080 -156.7289
80.566406 100.048 -157.0295
81.150224 100.013 -157.3362
81.738272 99.974 -157.6493
82.330581 99.932 -157.9690
82.927182 99.888 -158.2951
83.528107 99.842 -158.6270
84.133386 99.796 -158.9639
84.743051 99.752 -159.3050
85.357134 99.713 -159.6495
85.975667 99.682 -159.9966
86.598682 99.662 -160.3453
87.226212 99.656 -160.6950
87.858289 99.668 -161.0445
88.494946 99.700 -161.3924
89.136217 99.754 -161.7372
89.782135 99.832 -162.0772
90.432733 99.932 -162.4109
91.088046 100.052 -162.7369
91.748108 100.190 -163.0543
92.412952 100.341 -163.3624
93.082615 100.499 -163.6607
93.757130 100.661 -163.9492
94.436533 100.819 -164.2277
95.120859 100.971 -164.4961
95.810144 101.110 -164.7544
96.504423 101.235 -165.0024
97.203734 101.344 -165.2399
97.908112 101.435 -165.4668
98.617595 101.508 -165.6830
99.332219 101.565 -165.8882
100.052021 101.607 -166.0825
100.777039 101.636 -166.2657
101.507311 101.655 -166.4379
102.242875 101.665 -166.5989
102.983769 101.669 -166.7490
103.730032 101.668 -166.8883
104.481702 101.662 -167.0170
105.238820 101.652 -167.1355
106.001424 101.638 -167.2442
106.769554 101.617 -167.3437
107.543250 101.590 -167.4347
108.322553 101.555 -167.5181
109.107503 101.510 -167.5949
109.898141 101.453 -167.6663
110.694508 101.385 -167.7335
111.496646 101.304 -167.7977
112.304596 101.212 -167.8599
113.118402 101.108 -167.9213
113.938104 100.995 -167.9829
114.763747 100.875 -168.0457
115.595372 100.749 -168.1105
116.433024 100.620 -168.1781
117.276746 100.490 -168.2492
118.126581 100.361 -168.3242
118.982575 100.234 -168.4036
119.844772 100.110 -168.4876
120.713217 99.990 -168.5762
121.587954 99.873 -168.6696
122.469031 99.760 -168.7675
123.356492 99.648 -168.8703
124.250384 99.537 -168.9785
125.150753 99.425 -169.0929
126.057647 99.311 -169.2146
126.971113 99.192 -169.3445
127.891198 99.068 -169.4839
128.817950 98.938 -169.6334
129.751418 98.801 -169.7937
130.691651 98.656 -169.9649
131.638696 98.506 -170.1469
132.592604 98.350 -170.3392
133.553425 98.190 -170.5412
134.521208 98.029 -170.7516
135.496004 97.869 -170.9691
136.477864 97.714 -171.1918
137.466839 97.567 -171.4179
138.462981 97.431 -171.6452
139.466340 97.308 -171.8717
140.476971 97.201 -172.0953
141.494925 97.110 -172.3143
142.520256 97.035 -172.5266
143.553016 96.974 -172.7305
144.593260 96.925 -172.9241
145.641043 96.884 -173.1054
146.696418 96.848 -173.2725
147.759441 96.812 -173.4235
148.830166 96.773 -173.5566
149.908651 96.729 -173.6701
150.994951 96.677 -173.7622
152.089123 96.617 -173.8313
153.191223 96.547 -173.8756
154.301310 96.469 -173.8935
155.419441 96.385 -173.8832
156.545674 96.295 -173.8428
157.680069 96.201 -173.7707
158.822683 96.107 -173.6653
159.973578 96.013 -173.5254
161.132813 95.921 -173.3501
162.300447 95.832 -173.1389
163.476543 95.748 -172.8921
164.661162 95.669 -172.6104
165.854364 95.596 -172.2955
167.056213 95.529 -171.9492
168.266772 95.470 -171.5740
169.486102 95.418 -171.1727
170.714268 95.375 -170.7484
171.951334 95.341 -170.3041
173.197364 95.316 -169.8431
174.452424 95.300 -169.3685
175.716578 95.294 -168.8836
176.989893 95.296 -168.3914
178.272434 95.307 -167.8949
179.564270 95.324 -167.3973
180.865467 95.347 -166.9014
182.176092 95.374 -166.4100
183.496216 95.403 -165.9256
184.825905 95.435 -165.4504
186.165229 95.467 -164.9862
187.514259 95.499 -164.5346
188.873065 95.532 -164.0970
190.241717 95.565 -163.6744
191.620287 95.599 -163.2678
193.008847 95.634 -162.8782
194.407468 95.669 -162.5060
195.816225 95.705 -162.1510
197.235190 95.742 -161.8122
198.664438 95.779 -161.4874
200.104042 95.815 -161.1736
201.554078 95.850 -160.8674
203.014622 95.883 -160.5657
204.485750 95.914 -160.2659
205.967538 95.942 -159.9664
207.460064 95.966 -159.6673
208.963405 95.987 -159.3700
210.477640 96.004 -159.0772
212.002848 96.017 -158.7930
213.539108 96.027 -158.5224
215.086500 96.035 -158.2703
216.645105 96.040 -158.0409
218.215005 96.043 -157.8362
219.796281 96.044 -157.6549
221.389015 96.043 -157.4928
222.993292 96.039 -157.3432
224.609193 96.031 -157.1988
226.236804 96.019 -157.0534
227.876209 96.002 -156.9025
229.527494 95.979 -156.7434
231.190745 95.949 -156.5748
232.866048 95.914 -156.3957
234.553491 95.873 -156.2060
236.253163 95.828 -156.0051
237.965150 95.779 -155.7922
239.689544 95.729 -155.5664
241.426433 95.678 -155.3268
243.175909 95.628 -155.0728
244.938062 95.580 -154.8051
246.712984 95.535 -154.5253
248.500768 95.495 -154.2358
250.301507 95.460 -153.9394
252.115295 95.431 -153.6387
253.942226 95.408 -153.3359
255.782396 95.393 -153.0323
257.635901 95.385 -152.7284
259.502837 95.384 -152.4248
261.383301 95.391 -152.1215
263.277392 95.407 -151.8192
265.185209 95.431 -151.5188
267.106850 95.464 -151.2216
269.042417 95.505 -150.9296
270.992009 95.553 -150.6449
272.955729 95.610 -150.3702
274.933678 95.673 -150.1082
276.925961 95.742 -149.8621
278.932681 95.817 -149.6353
280.953942 95.897 -149.4310
282.989850 95.983 -149.2522
285.040511 96.073 -149.1015
287.106032 96.169 -148.9804
289.186521 96.270 -148.8899
291.282086 96.377 -148.8300
293.392836 96.490 -148.8006
295.518881 96.608 -148.8006
297.660333 96.731 -148.8292
299.817302 96.859 -148.8854
301.989902 96.989 -148.9680
304.178245 97.120 -149.0756
306.382446 97.249 -149.2070
308.602620 97.376 -149.3607
310.838882 97.497 -149.5352
313.091348 97.610 -149.7289
315.360137 97.715 -149.9398
317.645367 97.809 -150.1657
319.947156 97.892 -150.4036
322.265625 97.962 -150.6505
324.600895 98.018 -150.9025
326.953086 98.059 -151.1557
329.322323 98.086 -151.4056
331.708729 98.099 -151.6477
334.112427 98.096 -151.8773
336.533543 98.080 -152.0900
338.972204 98.049 -152.2818
341.428536 98.007 -152.4489
343.902668 97.953 -152.5887
346.394729 97.891 -152.6990
348.904848 97.822 -152.7790
351.433156 97.749 -152.8286
353.979786 97.675 -152.8487
356.544869 97.603 -152.8410
359.128540 97.536 -152.8078
361.730934 97.478 -152.7516
364.352185 97.434 -152.6755
366.992431 97.404 -152.5825
369.651810 97.394 -152.4759
372.330459 97.403 -152.3587
375.028519 97.434 -152.2341
377.746130 97.487 -152.1049
380.483434 97.560 -151.9737
383.240574 97.652 -151.8430
386.017693 97.760 -151.7150
388.814937 97.881 -151.5919
391.632450 98.013 -151.4760
394.470380 98.153 -151.3694
397.328875 98.296 -151.2741
400.208084 98.441 -151.1914
403.108157 98.586 -151.1223
406.029245 98.729 -151.0673
408.971500 98.871 -151.0271
411.935076 99.009 -151.0024
414.920127 99.145 -150.9940
417.926810 99.279 -151.0025
420.955280 99.411 -151.0284
424.005695 99.542 -151.0712
427.078215 99.673 -151.1300
430.173000 99.804 -151.2036
433.290211 99.935 -151.2910
436.430010 100.065 -151.3916
439.592562 100.194 -151.5048
442.778031 100.321 -151.6304
445.986583 100.443 -151.7685
449.218386 100.561 -151.9187
452.473607 100.671 -152.0808
455.752418 100.773 -152.2548
459.054987 100.864 -152.4402
462.381489 100.945 -152.6370
465.732096 101.015 -152.8447
469.106983 101.073 -153.0632
472.506325 101.120 -153.2922
475.930301 101.155 -153.5313
479.379088 101.181 -153.7803
482.852867 101.198 -154.0388
486.351817 101.206 -154.3065
489.876123 101.208 -154.5832
493.425968 101.203 -154.8687
497.001536 101.193 -155.1629
500.603014 101.177 -155.4659
504.230589 101.157 -155.7778
507.884452 101.132 -156.0988
511.564792 101.102 -156.4293
515.271802 101.068 -156.7697
519.005673 101.029 -157.1201
522.766602 100.986 -157.4806
526.554785 100.939 -157.8512
530.370418 100.892 -158.2310
534.213700 100.844 -158.6190
538.084833 100.798 -159.0133
541.984018 100.755 -159.4113
545.911457 100.717 -159.8109
549.867357 100.686 -160.2102
553.851922 100.660 -160.6079
557.865362 100.641 -161.0034
561.907884 100.627 -161.3957
565.979700 100.615 -161.7838
570.081022 100.604 -162.1658
574.212064 100.592 -162.5394
578.373042 100.576 -162.9016
582.564171 100.554 -163.2491
586.785671 100.525 -163.5786
591.037762 100.487 -163.8873
595.320665 100.440 -164.1726
599.634604 100.385 -164.4330
603.979804 100.319 -164.6674
608.356491 100.246 -164.8758
612.764893 100.164 -165.0593
617.205240 100.076 -165.2197
621.677763 99.982 -165.3596
626.182696 99.885 -165.4825
630.720274 99.786 -165.5921
635.290733 99.686 -165.6921
639.894312 99.588 -165.7859
644.531250 99.493 -165.8764
649.201789 99.403 -165.9659
653.906173 99.317 -166.0554
658.644647 99.237 -166.1453
663.417457 99.163 -166.2349
668.224854 99.093 -166.3225
673.067086 99.026 -166.4056
677.944408 98.960 -166.4808
682.857073 98.894 -166.5441
687.805336 98.826 -166.5907
692.789457 98.754 -166.6156
697.809695 98.677 -166.6136
702.866312 98.594 -166.5790
707.959571 98.503 -166.5067
713.089738 98.406 -166.3913
718.257080 98.302 -166.2281
723.461867 98.191 -166.0127
728.704370 98.075 -165.7415
733.984862 97.955 -165.4119
739.303619 97.833 -165.0223
744.660918 97.710 -164.5723
750.057038 97.588 -164.0628
755.492260 97.470 -163.4963
760.966869 97.356 -162.8766
766.481148 97.247 -162.2093
772.035387 97.145 -161.5016
777.629873 97.050 -160.7621
783.264900 96.962 -160.0005
788.940760 96.880 -159.2269
794.657750 96.804 -158.4516
800.416168 96.732 -157.6842
806.216313 96.663 -156.9335
812.058489 96.596 -156.2068
817.943000 96.529 -155.5100
823.870152 96.462 -154.8475
829.840255 96.395 -154.2219
835.853619 96.326 -153.6346
841.910559 96.256 -153.0858
848.011390 96.184 -152.5741
854.156430 96.112 -152.0970
860.346000 96.038 -151.6507
866.580422 95.964 -151.2299
872.860020 95.890 -150.8277
879.185124 95.816 -150.4358
885.556062 95.743 -150.0449
891.973166 95.674 -149.6457
898.436771 95.609 -149.2294
904.947215 95.550 -148.7894
911.504835 95.501 -148.3217
918.109975 95.462 -147.8263
924.762978 95.438 -147.3066
931.464192 95.428 -146.7698
938.213966 95.435 -146.2253
945.012651 95.459 -145.6839
951.860602 95.500 -145.1569
958.758176 95.556 -144.6546
965.705733 95.627 -144.1857
972.703635 95.710 -143.7573
979.752246 95.803 -143.3740
986.851935 95.905 -143.0389
994.003071 96.014 -142.7534
1001.206027 96.129 -142.5178
1008.461179 96.249 -142.3315
1015.768904 96.373 -142.1936
1023.129584 96.501 -142.1028
1030.543603 96.633 -142.0580
1038.011347 96.768 -142.0577
1045.533205 96.907 -142.1006
1053.109569 97.049 -142.1850
1060.740836 97.193 -142.3090
1068.427401 97.339 -142.4704
1076.169666 97.484 -142.6664
1083.968035 97.627 -142.8939
1091.822915 97.766 -143.1489
1099.734713 97.898 -143.4267
1107.703844 98.021 -143.7216
1115.730723 98.133 -144.0264
1123.815768 98.231 -144.3318
1131.959400 98.314 -144.6269
1140.162045 98.380 -144.8982
1148.424129 98.430 -145.1306
1156.746083 98.464 -145.3076
1165.128342 98.485 -145.4124
1173.571343 98.494 -145.4294
1182.075524 98.497 -145.3454
1190.641331 98.496 -145.1514
1199.269209 98.498 -144.8439
1207.959608 98.506 -144.4260
1216.712981 98.525 -143.9080
1225.529785 98.559 -143.3069
1234.410479 98.608 -142.6456
1243.355526 98.674 -141.9509
1252.365393 98.756 -141.2502
1261.440549 98.853 -140.5694
1270.581467 98.962 -139.9301
1279.788624 99.079 -139.3485
1289.062500 99.203 -138.8355
1298.403578 99.331 -138.3967
1307.812346 99.461 -138.0340
1317.289293 99.592 -137.7466
1326.834914 99.723 -137.5320
1336.449707 99.852 -137.3875
1346.134173 99.978 -137.3097
1355.888816 100.102 -137.2960
1365.714145 100.222 -137.3438
1375.610673 100.337 -137.4509
1385.578915 100.447 -137.6151
1395.619391 100.550 -137.8344
1405.732624 100.645 -138.1059
1415.919142 100.732 -138.4263
1426.179476 100.810 -138.7911
1436.514160 100.880 -139.1950
1446.923734 100.940 -139.6314
1457.408740 100.992 -140.0929
1467.969724 101.035 -140.5716
1478.607238 101.070 -141.0586
1489.321836 101.099 -141.5455
1500.114076 101.121 -142.0238
1510.984521 101.138 -142.4864
1521.933737 101.150 -142.9277
1532.962297 101.158 -143.3442
1544.070773 101.162 -143.7345
1555.259747 101.163 -144.0981
1566.529800 101.160 -144.4344
1577.881521 101.152 -144.7418
1589.315501 101.140 -145.0169
1600.832336 101.123 -145.2547
1612.432627 101.100 -145.4495
1624.116978 101.074 -145.5955
1635.886000 101.045 -145.6881
1647.740304 101.015 -145.7253
1659.680509 100.985 -145.7077
1671.707238 100.958 -145.6393
1683.821118 100.934 -145.5268
1696.022780 100.916 -145.3786
1708.312860 100.903 -145.2036
1720.692000 100.897 -145.0101
1733.160843 100.896 -144.8049
1745.720041 100.901 -144.5930
1758.370248 100.911 -144.3778
1771.112124 100.925 -144.1622
1783.946332 100.943 -143.9492
1796.873543 100.963 -143.7434
1809.894429 100.987 -143.5508
1823.009670 101.011 -143.3790
1836.219950 101.036 -143.2353
1849.525956 101.059 -143.1254
1862.928384 101.078 -143.0511
1876.427931 101.093 -143.0103
1890.025301 101.101 -142.9964
1903.721204 101.102 -142.9995
1917.516352 101.095 -143.0075
1931.411466 101.079 -143.0081
1945.407270 101.056 -142.9891
1959.504493 101.026 -142.9401
1973.703870 100.988 -142.8523
1988.006142 100.944 -142.7184
2002.412054 100.892 -142.5326
2016.922357 100.835 -142.2910
2031.537808 100.771 -141.9915
2046.259169 100.703 -141.6343
2061.087206 100.630 -141.2229
2076.022694 100.554 -140.7635
2091.066410 100.476 -140.2651
2106.219139 100.397 -139.7384
2121.481671 100.319 -139.1946
2136.854802 100.243 -138.6450
2152.339333 100.171 -138.1005
2167.936071 100.103 -137.5715
2183.645829 100.040 -137.0681
2199.469427 99.984 -136.5990
2215.407689 99.934 -136.1715
2231.461446 99.891 -135.7902
2247.631536 99.853 -135.4574
2263.918800 99.820 -135.1727
2280.324089 99.791 -134.9336
2296.848258 99.764 -134.7365
2313.492167 99.740 -134.5775
2330.256685 99.716 -134.4532
2347.142685 99.692 -134.3613
2364.151049 99.668 -134.3009
2381.282662 99.643 -134.2722
2398.538418 99.614 -134.2756
2415.919216 99.582 -134.3103
2433.425962 99.543 -134.3720
2451.059570 99.496 -134.4515
2468.820958 99.438 -134.5325
2486.711052 99.369 -134.5919
2504.730786 99.288 -134.5990
2522.881098 99.195 -134.5173
2541.162934 99.093 -134.3069
2559.577248 98.987 -133.9278
2578.125000 98.883 -133.3459
2596.807157 98.791 -132.5398
2615.624692 98.720 -131.5074
2634.578586 98.681 -130.2716
2653.669829 98.684 -128.8808
2672.899414 98.732 -127.4040
2692.268345 98.829 -125.9198
2711.777632 98.971 -124.5035
2731.428290 99.151 -123.2155
2751.221345 99.361 -122.0946
2771.157829 99.592 -121.1573
2791.238781 99.836 -120.4018
2811.465248 100.087 -119.8143
2831.838284 100.338 -119.3756
2852.358952 100.587 -119.0664
2873.028321 100.828 -118.8701
2893.847468 101.061 -118.7741
2914.817480 101.282 -118.7682
2935.939449 101.489 -118.8424
2957.214476 101.679 -118.9854
2978.643672 101.853 -119.1832
3000.228152 102.009 -119.4198
3021.969041 102.147 -119.6792
3043.867475 102.270 -119.9468
3065.924593 102.379 -120.2122
3088.141547 102.478 -120.4700
3110.519493 102.569 -120.7216
3133.059600 102.656 -120.9744
3155.763041 102.742 -121.2414
3178.631001 102.827 -121.5386
3201.664672 102.913 -121.8829
3224.865254 102.999 -122.2900
3248.233957 103.084 -122.7726
3271.771999 103.169 -123.3406
3295.480608 103.249 -124.0006
3319.361019 103.325 -124.7565
3343.414477 103.392 -125.6096
3367.642236 103.449 -126.5580
3392.045560 103.491 -127.5956
3416.625721 103.516 -128.7106
3441.383999 103.520 -129.8836
3466.321686 103.498 -131.0856
3491.440082 103.447 -132.2772
3516.740496 103.366 -133.4079
3542.224247 103.253 -134.4177
3567.892664 103.112 -135.2393
3593.747085 102.948 -135.8050
3619.788858 102.769 -136.0563
3646.019340 102.589 -135.9571
3672.439900 102.422 -135.5077
3699.051913 102.283 -134.7519
3725.856768 102.185 -133.7729
3752.855862 102.135 -132.6755
3780.050603 102.135 -131.5617
3807.442408 102.182 -130.5120
3835.032705 102.270 -129.5775
3862.822933 102.393 -128.7851
3890.814540 102.546 -128.1486
3919.008986 102.722 -127.6772
3947.407741 102.915 -127.3791
3976.012284 103.120 -127.2588
4004.824108 103.332 -127.3152
4033.844715 103.544 -127.5408
4063.075616 103.754 -127.9245
4092.518337 103.958 -128.4549
4122.174412 104.154 -129.1229
4152.045387 104.338 -129.9216
4182.132820 104.508 -130.8445
4212.438278 104.660 -131.8812
4242.963342 104.792 -133.0158
4273.709604 104.902 -134.2263
4304.678665 104.988 -135.4881
4335.872141 105.051 -136.7777
4367.291658 105.091 -138.0758
4398.938854 105.111 -139.3676
4430.815378 105.110 -140.6413
4462.922893 105.089 -141.8852
4495.263072 105.047 -143.0869
4527.837601 104.986 -144.2330
4560.648179 104.907 -145.3110
4593.696515 104.811 -146.3116
4626.984334 104.700 -147.2303
4660.513370 104.578 -148.0668
4694.285371 104.446 -148.8242
4728.302098 104.306 -149.5072
4762.565324 104.160 -150.1201
4797.076835 104.009 -150.6661
4831.838432 103.855 -151.1474
4866.851925 103.700 -151.5654
4902.119140 103.544 -151.9212
4937.641916 103.391 -152.2160
4973.422105 103.242 -152.4510
5009.461572 103.099 -152.6276
5045.762195 102.964 -152.7479
5082.325868 102.840 -152.8167
5119.154496 102.730 -152.8421
5156.250000 102.635 -152.8367
5193.614313 102.558 -152.8168
5231.249383 102.499 -152.8010
5269.157173 102.458 -152.8076
5307.339658 102.434 -152.8537
5345.798829 102.428 -152.9543
5384.536691 102.437 -153.1235
5423.555263 102.460 -153.3750
5462.856580 102.497 -153.7227
5502.442691 102.545 -154.1804
5542.315659 102.603 -154.7619
5582.477563 102.669 -155.4806
5622.930497 102.741 -156.3497
5663.676569 102.816 -157.3817
5704.717904 102.891 -158.5869
5746.056642 102.962 -159.9716
5787.694937 103.024 -161.5358
5829.634960 103.071 -163.2727
5871.878898 103.100 -165.1691
5914.428953 103.106 -167.2064
5957.287343 103.084 -169.3619
6000.456303 103.031 -171.6088
6043.938083 102.943 -173.9164
6087.734950 102.817 -176.2512
6131.849187 102.649 -178.5758
6176.283094 102.438 179.1500
6221.038987 102.182 176.9697
6266.119200 101.880 174.9292
6311.526083 101.532 173.0764
6357.262002 101.138 171.4604
6403.329344 100.702 170.1317
6449.730508 100.224 169.1403
6496.467914 99.711 168.5357
6543.543998 99.166 168.3644
6590.961215 98.597 168.6685
6638.722037 98.011 169.4836
6686.828954 97.419 170.8368
6735.284473 96.831 172.7453
6784.091120 96.259 175.2156
6833.251441 95.717 178.2431
6882.767998 95.221 -178.1911
6932.643372 94.787 -174.1263
6982.880164 94.434 -169.6303
7033.480992 94.177 -164.8051
7084.448495 94.030 -159.7856
7135.785329 93.999 -154.7306
7187.494171 94.087 -149.8061
7239.577717 94.285 -145.1655
7292.038681 94.581 -140.9333
7344.879799 94.958 -137.1963
7398.103826 95.399 -134.0048
7451.713536 95.886 -131.3802
7505.711724 96.402 -129.3236
7560.101205 96.934 -127.8241
7614.884815 97.466 -126.8637
7670.065409 97.989 -126.4200
7725.645865 98.490 -126.4650
7781.629080 98.960 -126.9633
7838.017972 99.387 -127.8694
7894.815481 99.765 -129.1243
7952.024569 100.083 -130.6527
8009.648217 100.336 -132.3598
8067.689429 100.519 -134.1291
8126.151233 100.633 -135.8211
8185.036674 100.680 -137.2781
8244.348824 100.672 -138.3372
8304.090774 100.629 -138.8569
8364.265639 100.576 -138.7585
8424.876556 100.543 -138.0720
8485.926684 100.558 -136.9625
8547.419207 100.640 -135.7111
8609.357330 100.795 -134.6417
8671.744282 101.013 -134.0281
8734.583316 101.275 -134.0309
8797.877707 101.556 -134.6886
8861.630756 101.834 -135.9472
8925.845785 102.094 -137.7011
8990.526143 102.325 -139.8273
9055.675202 102.522 -142.2071
9121.296357 102.685 -144.7385
9187.393031 102.818 -147.3409
9253.968668 102.927 -149.9567
9321.026740 103.016 -152.5496
9388.570742 103.091 -155.1016
9456.604196 103.157 -157.6084
9525.130648 103.216 -160.0757
9594.153671 103.270 -162.5150
9663.676863 103.317 -164.9404
9733.703850 103.359 -167.3643
9804.238280 103.394 -169.7974
9875.283832 103.424 -172.2490
9946.844210 103.452 -174.7313
10018.923143 103.480 -177.2629
10091.524390 103.512 -179.8693
10164.651736 103.550 177.4207
10238.308993 103.596 174.5802
10312.500000 103.649 171.5875
10387.228626 103.706 168.4290
10462.498767 103.767 165.0984
10538.314345 103.828 161.5950
10614.679315 103.889 157.9201
10691.597657 103.945 154.0751
10769.073381 103.995 150.0592
10847.110526 104.034 145.8700
10925.713161 104.058 141.5054
11004.885382 104.059 136.9666
11084.631318 104.031 132.2596
11164.955126 103.967 127.3967
11245.860993 103.860 122.3968
11327.353138 103.703 117.2857
11409.435808 103.490 112.0964
11492.113283 103.218 106.8670
11575.389873 102.885 101.6373
11659.269920 102.492 96.4439
11743.757796 102.041 91.3172
11828.857906 101.537 86.2782
11914.574686 100.985 81.3355
12000.912606 100.393 76.4841
12087.876166 99.770 71.7053
12175.469900 99.124 66.9678
12263.698373 98.464 62.2309
12352.566187 97.798 57.4474
12442.077974 97.132 52.5663
12532.238400 96.473 47.5345
12623.052165 95.823 42.2988
12714.524005 95.184 36.8064
12806.658687 94.555 31.0041
12899.461015 93.932 24.8359
12992.935827 93.312 18.2379
13087.087996 92.690 11.1269
13181.922430 92.062 3.3841
13277.444074 91.427 -5.1731
13373.657907 90.785 -14.8356
13470.568945 90.141 -26.0682
13568.182241 89.506 -39.5839
13666.502883 88.891 -56.3253
13765.535996 88.314 -76.9803
13865.286744 87.791 -100.6121
13965.760328 87.335 -123.9733
14066.961984 86.955 -144.0647
14168.896989 86.652 -160.2812
14271.570658 86.418 -173.4094
14374.988342 86.239 175.6317
14479.155433 86.099 166.1719
14584.077362 85.983 157.7822
14689.759598 85.877 150.1993
14796.207652 85.776 143.2653
14903.427072 85.681 136.8840
15011.423448 85.599 130.9935
15120.202410 85.546 125.5457
15229.769630 85.543 120.4910
15340.130819 85.614 115.7666
15451.291730 85.778 111.2892
15563.258160 86.051 106.9536
15676.035944 86.436 102.6376
15789.630962 86.922 98.2125
15904.049137 87.492 93.5566
16019.296433 88.125 88.5665
16135.378859 88.797 83.1632
16252.302465 89.489 77.2926
16370.073348 90.186 70.9213
16488.697648 90.874 64.0302
16608.181548 91.544 56.6099
16728.531278 92.187 48.6587
16849.753112 92.798 40.1822
16971.853368 93.374 31.1955
17094.838414 93.915 21.7253
17218.714660 94.426 11.8111
17343.488565 94.913 1.5046
17469.166632 95.391 -9.1340
17595.755415 95.876 -20.0435
17723.261512 96.383 -31.1718
17851.691571 96.923 -42.4878
17981.052287 97.501 -53.9911
18111.350404 98.110 -65.7113
18242.592715 98.734 -77.6992
18374.786062 99.354 -90.0117
18507.937336 99.947 -102.7006
18642.053479 100.494 -115.8134
18777.141484 100.979 -129.4204
18913.208391 101.389 -143.6880
19050.261296 101.720 -159.0737
19188.307342 101.969 -176.8881
19327.353727 102.142 158.8884
19467.407699 102.248 117.9664
19608.476560 102.302 66.2332
19750.567664 102.321 36.3131
19893.688419 102.321 22.4788
20037.846286 102.318 16.7742
