* Measurement data measured by REW V5.31.3
* Source: EXCL: Headset (USB-C to 3.5mm Headphone Jack Adapter), MICROPHONE (Master Volume), 0, volume: 0.260
* Format: 256k Log Swept Sine, 1 sweep at -12.0 dBFS with no timing reference
* Dated: Feb 10, 2025 1:58:24 PM
* REW Settings:
*  C-weighting compensation: Off
*  Target level: 75.0 dB
* Note: ; 
* Measurement: Maxwell (WC FreeZe) L5
* Smoothing: 1/6 octave
* Frequency Step: 96 ppo
* Start Frequency: 20.0 Hz
*
* Freq(Hz) SPL(dB) Phase(degrees)
20.141602 99.639 19.0121
20.287556 99.675 18.5694
20.434568 99.721 17.9787
20.582645 99.774 17.2574
20.731796 99.830 16.4243
20.882027 99.887 15.4975
21.033346 99.941 14.4932
21.185763 99.991 13.4261
21.339284 100.035 12.3084
21.493917 100.073 11.1503
21.649671 100.104 9.9604
21.806553 100.130 8.7459
21.964572 100.151 7.5125
22.123737 100.169 6.2648
22.284054 100.186 5.0062
22.445534 100.204 3.7386
22.608183 100.225 2.4631
22.772012 100.250 1.1791
22.937027 100.283 -0.1146
23.103238 100.324 -1.4204
23.270654 100.374 -2.7409
23.439282 100.435 -4.0789
23.609133 100.507 -5.4369
23.780215 100.590 -6.8163
23.952536 100.683 -8.2176
24.126106 100.785 -9.6400
24.300934 100.896 -11.0812
24.477028 101.013 -12.5376
24.654399 101.135 -14.0048
24.833055 101.260 -15.4778
25.013005 101.387 -16.9515
25.194260 101.514 -18.4216
25.376828 101.640 -19.8845
25.560719 101.763 -21.3380
25.745942 101.882 -22.7818
25.932508 101.998 -24.2170
26.120426 102.108 -25.6465
26.309705 102.213 -27.0746
26.500356 102.312 -28.5062
26.692388 102.404 -29.9466
26.885812 102.490 -31.4008
27.080638 102.570 -32.8730
27.276876 102.643 -34.3659
27.474535 102.709 -35.8805
27.673627 102.770 -37.4161
27.874161 102.826 -38.9700
28.076149 102.880 -40.5378
28.279600 102.934 -42.1141
28.484526 102.990 -43.6924
28.690937 103.052 -45.2662
28.898843 103.122 -46.8292
29.108256 103.203 -48.3760
29.319186 103.297 -49.9022
29.531645 103.405 -51.4053
29.745644 103.526 -52.8842
29.961193 103.661 -54.3395
30.178304 103.805 -55.7730
30.396989 103.954 -57.1876
30.617258 104.105 -58.5870
30.839123 104.252 -59.9748
31.062596 104.390 -61.3546
31.287688 104.514 -62.7292
31.514412 104.618 -64.1010
31.742778 104.699 -65.4712
31.972800 104.754 -66.8400
32.204488 104.780 -68.2071
32.437855 104.776 -69.5708
32.672913 104.740 -70.9293
32.909674 104.674 -72.2798
33.148151 104.579 -73.6193
33.388356 104.456 -74.9448
33.630302 104.309 -76.2533
33.874001 104.141 -77.5422
34.119466 103.956 -78.8093
34.366710 103.759 -80.0531
34.615745 103.553 -81.2727
34.866585 103.345 -82.4679
35.119243 103.138 -83.6392
35.373731 102.936 -84.7871
35.630064 102.744 -85.9126
35.888254 102.566 -87.0169
36.148315 102.403 -88.1011
36.410261 102.260 -89.1663
36.674104 102.139 -90.2140
36.939860 102.039 -91.2456
37.207542 101.964 -92.2623
37.477163 101.913 -93.2656
37.748738 101.887 -94.2568
38.022281 101.885 -95.2367
38.297806 101.906 -96.2063
38.575327 101.951 -97.1660
38.854860 102.018 -98.1162
39.136419 102.106 -99.0572
39.420017 102.215 -99.9896
39.705671 102.342 -100.9141
39.993395 102.488 -101.8319
40.283203 102.651 -102.7447
40.575112 102.829 -103.6544
40.869136 103.022 -104.5636
41.165290 103.226 -105.4748
41.463591 103.441 -106.3908
41.764053 103.664 -107.3145
42.066693 103.894 -108.2487
42.371525 104.126 -109.1959
42.678567 104.360 -110.1584
42.987834 104.592 -111.1382
43.299341 104.819 -112.1368
43.613106 105.039 -113.1551
43.929145 105.249 -114.1936
44.247473 105.446 -115.2526
44.568109 105.629 -116.3321
44.891068 105.796 -117.4318
45.216367 105.945 -118.5514
45.544023 106.076 -119.6905
45.874054 106.186 -120.8483
46.206476 106.276 -122.0233
46.541307 106.345 -123.2135
46.878565 106.392 -124.4160
47.218266 106.419 -125.6271
47.560429 106.425 -126.8427
47.905072 106.412 -128.0582
48.252212 106.379 -129.2691
48.601867 106.329 -130.4711
48.954056 106.263 -131.6599
49.308798 106.182 -132.8319
49.666109 106.088 -133.9840
50.026010 105.982 -135.1134
50.388520 105.867 -136.2178
50.753656 105.744 -137.2955
51.121437 105.616 -138.3448
51.491884 105.483 -139.3646
51.865016 105.348 -140.3539
52.240851 105.212 -141.3119
52.619410 105.075 -142.2381
53.000712 104.939 -143.1322
53.384777 104.805 -143.9939
53.771625 104.671 -144.8233
54.161276 104.539 -145.6201
54.553751 104.409 -146.3846
54.949070 104.279 -147.1169
55.347254 104.149 -147.8172
55.748323 104.019 -148.4860
56.152298 103.889 -149.1237
56.559201 103.757 -149.7310
56.969052 103.624 -150.3083
57.381873 103.490 -150.8567
57.797686 103.354 -151.3769
58.216512 103.216 -151.8703
58.638373 103.077 -152.3381
59.063291 102.937 -152.7818
59.491288 102.797 -153.2032
59.922386 102.657 -153.6036
60.356608 102.516 -153.9847
60.793977 102.376 -154.3477
61.234515 102.238 -154.6936
61.678246 102.100 -155.0229
62.125192 101.964 -155.3361
62.575377 101.831 -155.6335
63.028824 101.700 -155.9155
63.485557 101.573 -156.1825
63.945599 101.450 -156.4351
64.408975 101.332 -156.6740
64.875709 101.219 -156.8997
65.345825 101.111 -157.1130
65.819348 101.010 -157.3149
66.296302 100.914 -157.5064
66.776713 100.825 -157.6890
67.260604 100.742 -157.8643
67.748002 100.664 -158.0342
68.238932 100.593 -158.2005
68.733420 100.527 -158.3651
69.231490 100.466 -158.5294
69.733170 100.409 -158.6950
70.238485 100.358 -158.8629
70.747463 100.310 -159.0339
71.260128 100.267 -159.2083
71.776508 100.227 -159.3864
72.296630 100.191 -159.5682
72.820521 100.158 -159.7540
73.348209 100.128 -159.9439
73.879720 100.100 -160.1383
74.415083 100.074 -160.3374
74.954326 100.050 -160.5417
75.497475 100.028 -160.7513
76.044561 100.006 -160.9662
76.595612 99.983 -161.1864
77.150655 99.961 -161.4118
77.709720 99.937 -161.6422
78.272837 99.912 -161.8777
78.840034 99.884 -162.1181
79.411342 99.853 -162.3634
79.986789 99.819 -162.6137
80.566406 99.782 -162.8686
81.150224 99.740 -163.1282
81.738272 99.695 -163.3921
82.330581 99.647 -163.6602
82.927182 99.596 -163.9323
83.528107 99.544 -164.2079
84.133386 99.493 -164.4868
84.743051 99.444 -164.7682
85.357134 99.401 -165.0517
85.975667 99.366 -165.3365
86.598682 99.342 -165.6221
87.226212 99.334 -165.9078
87.858289 99.344 -166.1932
88.494946 99.376 -166.4779
89.136217 99.430 -166.7613
89.782135 99.507 -167.0430
90.432733 99.608 -167.3220
91.088046 99.729 -167.5976
91.748108 99.868 -167.8688
92.412952 100.020 -168.1347
93.082615 100.180 -168.3942
93.757130 100.343 -168.6463
94.436533 100.503 -168.8902
95.120859 100.655 -169.1250
95.810144 100.795 -169.3502
96.504423 100.921 -169.5654
97.203734 101.029 -169.7704
97.908112 101.120 -169.9652
98.617595 101.193 -170.1498
99.332219 101.250 -170.3244
100.052021 101.291 -170.4888
100.777039 101.320 -170.6432
101.507311 101.338 -170.7879
102.242875 101.347 -170.9232
102.983769 101.350 -171.0495
103.730032 101.348 -171.1674
104.481702 101.341 -171.2775
105.238820 101.330 -171.3805
106.001424 101.314 -171.4769
106.769554 101.292 -171.5674
107.543250 101.264 -171.6525
108.322553 101.226 -171.7328
109.107503 101.178 -171.8091
109.898141 101.119 -171.8821
110.694508 101.048 -171.9527
111.496646 100.964 -172.0216
112.304596 100.869 -172.0898
113.118402 100.762 -172.1581
113.938104 100.645 -172.2270
114.763747 100.521 -172.2968
115.595372 100.391 -172.3675
116.433024 100.257 -172.4388
117.276746 100.122 -172.5103
118.126581 99.988 -172.5817
118.982575 99.855 -172.6529
119.844772 99.725 -172.7241
120.713217 99.599 -172.7960
121.587954 99.476 -172.8692
122.469031 99.356 -172.9446
123.356492 99.237 -173.0231
124.250384 99.119 -173.1059
125.150753 99.000 -173.1938
126.057647 98.878 -173.2880
126.971113 98.753 -173.3895
127.891198 98.621 -173.4989
128.817950 98.484 -173.6167
129.751418 98.339 -173.7431
130.691651 98.187 -173.8778
131.638696 98.029 -174.0200
132.592604 97.865 -174.1686
133.553425 97.697 -174.3226
134.521208 97.528 -174.4805
135.496004 97.360 -174.6410
136.477864 97.196 -174.8028
137.466839 97.041 -174.9644
138.462981 96.897 -175.1246
139.466340 96.766 -175.2815
140.476971 96.652 -175.4336
141.494925 96.554 -175.5788
142.520256 96.472 -175.7151
143.553016 96.405 -175.8405
144.593260 96.351 -175.9530
145.641043 96.305 -176.0509
146.696418 96.264 -176.1325
147.759441 96.224 -176.1962
148.830166 96.182 -176.2405
149.908651 96.134 -176.2640
150.994951 96.080 -176.2649
152.089123 96.017 -176.2415
153.191223 95.946 -176.1918
154.301310 95.867 -176.1141
155.419441 95.782 -176.0064
156.545674 95.692 -175.8672
157.680069 95.600 -175.6953
158.822683 95.507 -175.4898
159.973578 95.414 -175.2503
161.132813 95.324 -174.9769
162.300447 95.238 -174.6700
163.476543 95.157 -174.3300
164.661162 95.082 -173.9581
165.854364 95.013 -173.5554
167.056213 94.951 -173.1234
168.266772 94.897 -172.6641
169.486102 94.850 -172.1797
170.714268 94.813 -171.6730
171.951334 94.785 -171.1468
173.197364 94.767 -170.6044
174.452424 94.759 -170.0490
175.716578 94.761 -169.4839
176.989893 94.771 -168.9125
178.272434 94.790 -168.3381
179.564270 94.816 -167.7640
180.865467 94.848 -167.1934
182.176092 94.884 -166.6292
183.496216 94.923 -166.0741
184.825905 94.964 -165.5305
186.165229 95.006 -165.0005
187.514259 95.049 -164.4859
188.873065 95.093 -163.9881
190.241717 95.138 -163.5082
191.620287 95.184 -163.0472
193.008847 95.231 -162.6057
194.407468 95.280 -162.1840
195.816225 95.330 -161.7825
197.235190 95.382 -161.4014
198.664438 95.434 -161.0403
200.104042 95.487 -160.6989
201.554078 95.539 -160.3764
203.014622 95.589 -160.0718
204.485750 95.637 -159.7838
205.967538 95.681 -159.5113
207.460064 95.722 -159.2529
208.963405 95.759 -159.0073
210.477640 95.793 -158.7732
212.002848 95.822 -158.5490
213.539108 95.848 -158.3331
215.086500 95.872 -158.1241
216.645105 95.892 -157.9203
218.215005 95.911 -157.7206
219.796281 95.927 -157.5240
221.389015 95.941 -157.3300
222.993292 95.952 -157.1380
224.609193 95.960 -156.9474
226.236804 95.963 -156.7578
227.876209 95.962 -156.5685
229.527494 95.956 -156.3790
231.190745 95.945 -156.1887
232.866048 95.928 -155.9968
234.553491 95.907 -155.8027
236.253163 95.881 -155.6060
237.965150 95.853 -155.4065
239.689544 95.822 -155.2045
241.426433 95.791 -155.0005
243.175909 95.760 -154.7954
244.938062 95.731 -154.5900
246.712984 95.705 -154.3850
248.500768 95.683 -154.1810
250.301507 95.665 -153.9784
252.115295 95.652 -153.7776
253.942226 95.645 -153.5789
255.782396 95.645 -153.3831
257.635901 95.651 -153.1912
259.502837 95.666 -153.0048
261.383301 95.689 -152.8259
263.277392 95.720 -152.6571
265.185209 95.760 -152.5013
267.106850 95.809 -152.3615
269.042417 95.865 -152.2409
270.992009 95.929 -152.1426
272.955729 95.999 -152.0697
274.933678 96.075 -152.0246
276.925961 96.156 -152.0096
278.932681 96.240 -152.0261
280.953942 96.326 -152.0750
282.989850 96.415 -152.1562
285.040511 96.504 -152.2691
287.106032 96.595 -152.4124
289.186521 96.687 -152.5843
291.282086 96.781 -152.7824
293.392836 96.875 -153.0039
295.518881 96.971 -153.2451
297.660333 97.068 -153.5022
299.817302 97.165 -153.7704
301.989902 97.261 -154.0447
304.178245 97.355 -154.3200
306.382446 97.445 -154.5912
308.602620 97.531 -154.8533
310.838882 97.610 -155.1020
313.091348 97.682 -155.3335
315.360137 97.745 -155.5445
317.645367 97.799 -155.7320
319.947156 97.843 -155.8940
322.265625 97.877 -156.0288
324.600895 97.900 -156.1358
326.953086 97.913 -156.2147
329.322323 97.917 -156.2659
331.708729 97.910 -156.2906
334.112427 97.894 -156.2903
336.533543 97.870 -156.2670
338.972204 97.838 -156.2235
341.428536 97.799 -156.1623
343.902668 97.755 -156.0865
346.394729 97.707 -155.9991
348.904848 97.657 -155.9035
351.433156 97.607 -155.8027
353.979786 97.560 -155.7003
356.544869 97.519 -155.5993
359.128540 97.485 -155.5029
361.730934 97.463 -155.4142
364.352185 97.454 -155.3359
366.992431 97.462 -155.2704
369.651810 97.487 -155.2197
372.330459 97.532 -155.1855
375.028519 97.596 -155.1689
377.746130 97.680 -155.1709
380.483434 97.781 -155.1919
383.240574 97.897 -155.2321
386.017693 98.027 -155.2914
388.814937 98.166 -155.3695
391.632450 98.313 -155.4659
394.470380 98.463 -155.5800
397.328875 98.615 -155.7110
400.208084 98.766 -155.8580
403.108157 98.915 -156.0203
406.029245 99.059 -156.1972
408.971500 99.200 -156.3878
411.935076 99.335 -156.5914
414.920127 99.467 -156.8074
417.926810 99.595 -157.0353
420.955280 99.719 -157.2744
424.005695 99.841 -157.5242
427.078215 99.962 -157.7844
430.173000 100.081 -158.0547
433.290211 100.199 -158.3347
436.430010 100.316 -158.6243
439.592562 100.431 -158.9235
442.778031 100.542 -159.2321
445.986583 100.649 -159.5502
449.218386 100.750 -159.8777
452.473607 100.844 -160.2147
455.752418 100.928 -160.5611
459.054987 101.002 -160.9167
462.381489 101.064 -161.2815
465.732096 101.114 -161.6552
469.106983 101.151 -162.0374
472.506325 101.176 -162.4278
475.930301 101.189 -162.8260
479.379088 101.190 -163.2313
482.852867 101.180 -163.6431
486.351817 101.161 -164.0604
489.876123 101.133 -164.4820
493.425968 101.096 -164.9064
497.001536 101.052 -165.3316
500.603014 101.000 -165.7551
504.230589 100.941 -166.1741
507.884452 100.875 -166.5853
511.564792 100.802 -166.9850
515.271802 100.721 -167.3693
519.005673 100.634 -167.7344
522.766602 100.541 -168.0766
526.554785 100.445 -168.3930
530.370418 100.347 -168.6810
534.213700 100.249 -168.9394
538.084833 100.155 -169.1677
541.984018 100.067 -169.3667
545.911457 99.988 -169.5381
549.867357 99.918 -169.6847
553.851922 99.860 -169.8098
557.865362 99.813 -169.9174
561.907884 99.776 -170.0116
565.979700 99.749 -170.0968
570.081022 99.728 -170.1771
574.212064 99.713 -170.2563
578.373042 99.700 -170.3380
582.564171 99.687 -170.4254
586.785671 99.673 -170.5210
591.037762 99.656 -170.6273
595.320665 99.634 -170.7462
599.634604 99.606 -170.8795
603.979804 99.571 -171.0287
608.356491 99.530 -171.1948
612.764893 99.481 -171.3788
617.205240 99.426 -171.5816
621.677763 99.365 -171.8037
626.182696 99.298 -172.0457
630.720274 99.227 -172.3078
635.290733 99.154 -172.5904
639.894312 99.078 -172.8932
644.531250 99.003 -173.2159
649.201789 98.927 -173.5573
653.906173 98.854 -173.9161
658.644647 98.781 -174.2900
663.417457 98.709 -174.6761
668.224854 98.637 -175.0707
673.067086 98.563 -175.4692
677.944408 98.486 -175.8660
682.857073 98.404 -176.2545
687.805336 98.314 -176.6270
692.789457 98.214 -176.9750
697.809695 98.104 -177.2890
702.866312 97.982 -177.5590
707.959571 97.848 -177.7746
713.089738 97.701 -177.9254
718.257080 97.542 -178.0016
723.461867 97.371 -177.9940
728.704370 97.190 -177.8949
733.984862 97.001 -177.6980
739.303619 96.806 -177.3986
744.660918 96.607 -176.9934
750.057038 96.407 -176.4807
755.492260 96.208 -175.8600
760.966869 96.011 -175.1319
766.481148 95.819 -174.2983
772.035387 95.634 -173.3624
777.629873 95.457 -172.3289
783.264900 95.289 -171.2051
788.940760 95.131 -170.0010
794.657750 94.983 -168.7297
800.416168 94.847 -167.4070
806.216313 94.721 -166.0513
812.058489 94.607 -164.6820
817.943000 94.503 -163.3185
823.870152 94.410 -161.9790
829.840255 94.326 -160.6796
835.853619 94.252 -159.4334
841.910559 94.187 -158.2507
848.011390 94.131 -157.1384
854.156430 94.082 -156.1006
860.346000 94.040 -155.1383
866.580422 94.006 -154.2497
872.860020 93.978 -153.4312
879.185124 93.957 -152.6773
885.556062 93.943 -151.9814
891.973166 93.936 -151.3366
898.436771 93.937 -150.7365
904.947215 93.946 -150.1755
911.504835 93.965 -149.6496
918.109975 93.995 -149.1566
924.762978 94.036 -148.6962
931.464192 94.088 -148.2698
938.213966 94.152 -147.8799
945.012651 94.227 -147.5295
951.860602 94.311 -147.2217
958.758176 94.405 -146.9591
965.705733 94.506 -146.7429
972.703635 94.611 -146.5733
979.752246 94.721 -146.4492
986.851935 94.832 -146.3680
994.003071 94.945 -146.3261
1001.206027 95.057 -146.3189
1008.461179 95.169 -146.3410
1015.768904 95.281 -146.3868
1023.129584 95.392 -146.4505
1030.543603 95.505 -146.5262
1038.011347 95.619 -146.6087
1045.533205 95.736 -146.6936
1053.109569 95.856 -146.7776
1060.740836 95.981 -146.8596
1068.427401 96.110 -146.9408
1076.169666 96.243 -147.0245
1083.968035 96.379 -147.1159
1091.822915 96.516 -147.2203
1099.734713 96.650 -147.3418
1107.703844 96.779 -147.4819
1115.730723 96.899 -147.6385
1123.815768 97.009 -147.8058
1131.959400 97.106 -147.9743
1140.162045 97.190 -148.1317
1148.424129 97.260 -148.2643
1156.746083 97.318 -148.3582
1165.128342 97.365 -148.4013
1173.571343 97.406 -148.3849
1182.075524 97.444 -148.3047
1190.641331 97.483 -148.1622
1199.269209 97.525 -147.9636
1207.959608 97.575 -147.7196
1216.712981 97.632 -147.4433
1225.529785 97.700 -147.1492
1234.410479 97.776 -146.8516
1243.355526 97.861 -146.5631
1252.365393 97.953 -146.2944
1261.440549 98.050 -146.0533
1270.581467 98.149 -145.8449
1279.788624 98.250 -145.6715
1289.062500 98.351 -145.5328
1298.403578 98.451 -145.4269
1307.812346 98.549 -145.3502
1317.289293 98.645 -145.2989
1326.834914 98.741 -145.2694
1336.449707 98.835 -145.2599
1346.134173 98.930 -145.2707
1355.888816 99.025 -145.3060
1365.714145 99.121 -145.3737
1375.610673 99.217 -145.4842
1385.578915 99.313 -145.6488
1395.619391 99.406 -145.8779
1405.732624 99.495 -146.1793
1415.919142 99.577 -146.5581
1426.179476 99.651 -147.0158
1436.514160 99.716 -147.5511
1446.923734 99.769 -148.1597
1457.408740 99.810 -148.8349
1467.969724 99.839 -149.5676
1478.607238 99.854 -150.3470
1489.321836 99.855 -151.1600
1500.114076 99.840 -151.9919
1510.984521 99.810 -152.8258
1521.933737 99.763 -153.6422
1532.962297 99.699 -154.4192
1544.070773 99.618 -155.1323
1555.259747 99.520 -155.7549
1566.529800 99.406 -156.2596
1577.881521 99.278 -156.6192
1589.315501 99.140 -156.8101
1600.832336 98.995 -156.8144
1612.432627 98.848 -156.6225
1624.116978 98.705 -156.2344
1635.886000 98.572 -155.6597
1647.740304 98.452 -154.9176
1659.680509 98.351 -154.0355
1671.707238 98.273 -153.0475
1683.821118 98.218 -151.9923
1696.022780 98.189 -150.9098
1708.312860 98.185 -149.8384
1720.692000 98.204 -148.8117
1733.160843 98.244 -147.8563
1745.720041 98.301 -146.9908
1758.370248 98.370 -146.2255
1771.112124 98.449 -145.5631
1783.946332 98.533 -145.0003
1796.873543 98.618 -144.5298
1809.894429 98.703 -144.1423
1823.009670 98.785 -143.8286
1836.219950 98.863 -143.5803
1849.525956 98.936 -143.3905
1862.928384 99.001 -143.2519
1876.427931 99.060 -143.1563
1890.025301 99.111 -143.0942
1903.721204 99.154 -143.0558
1917.516352 99.190 -143.0318
1931.411466 99.219 -143.0151
1945.407270 99.242 -143.0009
1959.504493 99.259 -142.9861
1973.703870 99.270 -142.9690
1988.006142 99.275 -142.9476
2002.412054 99.273 -142.9202
2016.922357 99.264 -142.8851
2031.537808 99.248 -142.8416
2046.259169 99.223 -142.7903
2061.087206 99.192 -142.7339
2076.022694 99.153 -142.6766
2091.066410 99.106 -142.6231
2106.219139 99.052 -142.5780
2121.481671 98.991 -142.5443
2136.854802 98.924 -142.5236
2152.339333 98.850 -142.5161
2167.936071 98.771 -142.5216
2183.645829 98.688 -142.5399
2199.469427 98.603 -142.5718
2215.407689 98.515 -142.6189
2231.461446 98.426 -142.6838
2247.631536 98.337 -142.7692
2263.918800 98.247 -142.8771
2280.324089 98.156 -143.0091
2296.848258 98.064 -143.1654
2313.492167 97.968 -143.3450
2330.256685 97.868 -143.5457
2347.142685 97.762 -143.7636
2364.151049 97.649 -143.9928
2381.282662 97.527 -144.2249
2398.538418 97.394 -144.4483
2415.919216 97.248 -144.6478
2433.425962 97.088 -144.8031
2451.059570 96.913 -144.8878
2468.820958 96.721 -144.8676
2486.711052 96.513 -144.7001
2504.730786 96.291 -144.3353
2522.881098 96.058 -143.7192
2541.162934 95.821 -142.7995
2559.577248 95.589 -141.5345
2578.125000 95.375 -139.9044
2596.807157 95.192 -137.9214
2615.624692 95.054 -135.6365
2634.578586 94.972 -133.1372
2653.669829 94.953 -130.5345
2672.899414 94.999 -127.9431
2692.268345 95.105 -125.4611
2711.777632 95.264 -123.1569
2731.428290 95.468 -121.0667
2751.221345 95.707 -119.1990
2771.157829 95.973 -117.5449
2791.238781 96.258 -116.0882
2811.465248 96.557 -114.8132
2831.838284 96.864 -113.7096
2852.358952 97.175 -112.7731
2873.028321 97.485 -112.0032
2893.847468 97.788 -111.3993
2914.817480 98.080 -110.9565
2935.939449 98.358 -110.6640
2957.214476 98.618 -110.5047
2978.643672 98.858 -110.4566
3000.228152 99.078 -110.4957
3021.969041 99.279 -110.5991
3043.867475 99.461 -110.7474
3065.924593 99.629 -110.9272
3088.141547 99.784 -111.1318
3110.519493 99.929 -111.3609
3133.059600 100.067 -111.6192
3155.763041 100.198 -111.9144
3178.631001 100.325 -112.2550
3201.664672 100.447 -112.6496
3224.865254 100.564 -113.1061
3248.233957 100.675 -113.6315
3271.771999 100.780 -114.2318
3295.480608 100.878 -114.9112
3319.361019 100.964 -115.6716
3343.414477 101.038 -116.5105
3367.642236 101.095 -117.4196
3392.045560 101.132 -118.3831
3416.625721 101.145 -119.3771
3441.383999 101.133 -120.3689
3466.321686 101.093 -121.3174
3491.440082 101.025 -122.1745
3516.740496 100.932 -122.8871
3542.224247 100.818 -123.4024
3567.892664 100.690 -123.6745
3593.747085 100.559 -123.6747
3619.788858 100.437 -123.4004
3646.019340 100.335 -122.8793
3672.439900 100.264 -122.1666
3699.051913 100.230 -121.3322
3725.856768 100.236 -120.4455
3752.855862 100.280 -119.5634
3780.050603 100.360 -118.7263
3807.442408 100.472 -117.9611
3835.032705 100.612 -117.2878
3862.822933 100.776 -116.7232
3890.814540 100.959 -116.2814
3919.008986 101.155 -115.9711
3947.407741 101.361 -115.7940
3976.012284 101.571 -115.7463
4004.824108 101.783 -115.8209
4033.844715 101.995 -116.0109
4063.075616 102.202 -116.3110
4092.518337 102.404 -116.7165
4122.174412 102.597 -117.2212
4152.045387 102.780 -117.8153
4182.132820 102.951 -118.4855
4212.438278 103.109 -119.2171
4242.963342 103.254 -119.9963
4273.709604 103.386 -120.8129
4304.678665 103.505 -121.6592
4335.872141 103.611 -122.5286
4367.291658 103.704 -123.4135
4398.938854 103.782 -124.3046
4430.815378 103.847 -125.1912
4462.922893 103.898 -126.0634
4495.263072 103.936 -126.9133
4527.837601 103.963 -127.7357
4560.648179 103.978 -128.5279
4593.696515 103.984 -129.2896
4626.984334 103.981 -130.0219
4660.513370 103.970 -130.7273
4694.285371 103.953 -131.4088
4728.302098 103.929 -132.0690
4762.565324 103.900 -132.7093
4797.076835 103.867 -133.3296
4831.838432 103.831 -133.9286
4866.851925 103.793 -134.5048
4902.119140 103.756 -135.0570
4937.641916 103.722 -135.5857
4973.422105 103.692 -136.0934
5009.461572 103.669 -136.5854
5045.762195 103.655 -137.0699
5082.325868 103.650 -137.5574
5119.154496 103.656 -138.0590
5156.250000 103.672 -138.5837
5193.614313 103.698 -139.1378
5231.249383 103.732 -139.7240
5269.157173 103.774 -140.3437
5307.339658 103.825 -140.9986
5345.798829 103.884 -141.6921
5384.536691 103.951 -142.4287
5423.555263 104.027 -143.2143
5462.856580 104.113 -144.0556
5502.442691 104.208 -144.9612
5542.315659 104.315 -145.9435
5582.477563 104.433 -147.0197
5622.930497 104.562 -148.2104
5663.676569 104.701 -149.5374
5704.717904 104.847 -151.0195
5746.056642 104.997 -152.6700
5787.694937 105.148 -154.4959
5829.634960 105.295 -156.4993
5871.878898 105.435 -158.6777
5914.428953 105.563 -161.0252
5957.287343 105.677 -163.5330
6000.456303 105.773 -166.1900
6043.938083 105.846 -168.9833
6087.734950 105.894 -171.8987
6131.849187 105.913 -174.9203
6176.283094 105.898 -178.0304
6221.038987 105.847 178.7916
6266.119200 105.754 175.5695
6311.526083 105.617 172.3311
6357.262002 105.433 169.1081
6403.329344 105.199 165.9353
6449.730508 104.915 162.8491
6496.467914 104.580 159.8851
6543.543998 104.197 157.0750
6590.961215 103.768 154.4439
6638.722037 103.297 152.0092
6686.828954 102.787 149.7823
6735.284473 102.243 147.7729
6784.091120 101.666 145.9928
6833.251441 101.060 144.4578
6882.767998 100.426 143.1882
6932.643372 99.767 142.2097
6982.880164 99.087 141.5526
7033.480992 98.387 141.2531
7084.448495 97.673 141.3527
7135.785329 96.950 141.8986
7187.494171 96.225 142.9438
7239.577717 95.507 144.5444
7292.038681 94.807 146.7533
7344.879799 94.142 149.6083
7398.103826 93.529 153.1148
7451.713536 92.988 157.2220
7505.711724 92.541 161.8004
7560.101205 92.205 166.6327
7614.884815 91.989 171.4352
7670.065409 91.891 175.9107
7725.645865 91.899 179.8116
7781.629080 91.992 -177.0138
7838.017972 92.142 -174.6089
7894.815481 92.325 -172.9222
7952.024569 92.520 -171.8282
8009.648217 92.709 -171.1399
8067.689429 92.887 -170.6050
8126.151233 93.051 -169.8806
8185.036674 93.210 -168.4806
8244.348824 93.379 -165.6938
8304.090774 93.578 -160.5018
8364.265639 93.829 -151.7146
8424.876556 94.150 -138.9663
8485.926684 94.549 -124.5508
8547.419207 95.021 -112.5350
8609.357330 95.552 -104.8980
8671.744282 96.121 -101.1214
8734.583316 96.708 -100.0372
8797.877707 97.295 -100.6987
8861.630756 97.869 -102.4724
8925.845785 98.425 -104.9538
8990.526143 98.956 -107.8868
9055.675202 99.463 -111.1106
9121.296357 99.944 -114.5255
9187.393031 100.399 -118.0723
9253.968668 100.825 -121.7163
9321.026740 101.219 -125.4371
9388.570742 101.579 -129.2207
9456.604196 101.901 -133.0540
9525.130648 102.181 -136.9207
9594.153671 102.417 -140.7998
9663.676863 102.610 -144.6661
9733.703850 102.765 -148.4940
9804.238280 102.888 -152.2653
9875.283832 102.991 -155.9784
9946.844210 103.088 -159.6535
10018.923143 103.191 -163.3302
10091.524390 103.307 -167.0609
10164.651736 103.441 -170.9024
10238.308993 103.592 -174.9092
10312.500000 103.753 -179.1268
10387.228626 103.915 176.4123
10462.498767 104.065 171.6910
10538.314345 104.189 166.7097
10614.679315 104.274 161.4865
10691.597657 104.308 156.0566
10769.073381 104.279 150.4700
10847.110526 104.181 144.7874
10925.713161 104.009 139.0742
11004.885382 103.762 133.3934
11084.631318 103.443 127.8005
11164.955126 103.054 122.3394
11245.860993 102.601 117.0421
11327.353138 102.090 111.9280
11409.435808 101.527 107.0053
11492.113283 100.919 102.2723
11575.389873 100.271 97.7194
11659.269920 99.590 93.3291
11743.757796 98.883 89.0775
11828.857906 98.158 84.9327
11914.574686 97.421 80.8535
12000.912606 96.684 76.7891
12087.876166 95.958 72.6780
12175.469900 95.255 68.4489
12263.698373 94.590 64.0207
12352.566187 93.979 59.3017
12442.077974 93.437 54.1873
12532.238400 92.976 48.5529
12623.052165 92.604 42.2422
12714.524005 92.319 35.0441
12806.658687 92.113 26.6429
12899.461015 91.971 16.5096
12992.935827 91.871 3.6602
13087.087996 91.793 -13.8644
13181.922430 91.717 -39.5453
13277.444074 91.628 -74.9861
13373.657907 91.517 -110.1160
13470.568945 91.378 -135.5731
13568.182241 91.211 -153.3749
13666.502883 91.017 -166.9230
13765.535996 90.800 -178.0878
13865.286744 90.565 172.2017
13965.760328 90.314 163.4614
14066.961984 90.051 155.4203
14168.896989 89.778 147.9152
14271.570658 89.496 140.8427
14374.988342 89.206 134.1342
14479.155433 88.905 127.7446
14584.077362 88.593 121.6450
14689.759598 88.267 115.8193
14796.207652 87.927 110.2622
14903.427072 87.574 104.9761
15011.423448 87.209 99.9692
15120.202410 86.839 95.2501
15229.769630 86.474 90.8231
15340.130819 86.130 86.6812
15451.291730 85.827 82.8016
15563.258160 85.589 79.1438
15676.035944 85.439 75.6484
15789.630962 85.399 72.2389
15904.049137 85.482 68.8224
16019.296433 85.690 65.2921
16135.378859 86.014 61.5309
16252.302465 86.433 57.4206
16370.073348 86.920 52.8528
16488.697648 87.448 47.7417
16608.181548 87.991 42.0322
16728.531278 88.530 35.7035
16849.753112 89.052 28.7671
16971.853368 89.552 21.2613
17094.838414 90.032 13.2434
17218.714660 90.499 4.7814
17343.488565 90.967 -4.0547
17469.166632 91.450 -13.2033
17595.755415 91.964 -22.6206
17723.261512 92.516 -32.2897
17851.691571 93.107 -42.2250
17981.052287 93.728 -52.4716
18111.350404 94.365 -63.0939
18242.592715 94.996 -74.1624
18374.786062 95.601 -85.7372
18507.937336 96.163 -97.8630
18642.053479 96.667 -110.5791
18777.141484 97.104 -123.9536
18913.208391 97.469 -138.1514
19050.261296 97.760 -153.5715
19188.307342 97.979 -171.1173
19327.353727 98.135 167.3706
19467.407699 98.236 139.3950
19608.476560 98.294 106.6887
19750.567664 98.321 79.2837
19893.688419 98.332 62.6309
20037.846286 98.334 55.1511
