* Measurement data measured by REW V5.31.3
* Source: EXCL: Headset (USB-C to 3.5mm Headphone Jack Adapter), MICROPHONE (Master Volume), 0, volume: 0.260
* Format: 256k Log Swept Sine, 1 sweep at -12.0 dBFS with no timing reference
* Dated: Feb 10, 2025 1:49:16 PM
* REW Settings:
*  C-weighting compensation: Off
*  Target level: 75.0 dB
* Note: ; 
* Measurement: Maxwell R5
* Smoothing: 1/6 octave
* Frequency Step: 96 ppo
* Start Frequency: 20.0 Hz
*
* Freq(Hz) SPL(dB) Phase(degrees)
20.141602 97.774 35.6692
20.287556 97.822 35.1332
20.434568 97.884 34.4225
20.582645 97.955 33.5627
20.731796 98.030 32.5816
20.882027 98.106 31.5061
21.033346 98.179 30.3612
21.185763 98.246 29.1685
21.339284 98.306 27.9459
21.493917 98.358 26.7074
21.649671 98.402 25.4632
21.806553 98.439 24.2203
21.964572 98.471 22.9825
22.123737 98.499 21.7509
22.284054 98.525 20.5244
22.445534 98.550 19.3001
22.608183 98.578 18.0739
22.772012 98.609 16.8408
22.937027 98.646 15.5958
23.103238 98.689 14.3338
23.270654 98.740 13.0504
23.439282 98.801 11.7424
23.609133 98.871 10.4073
23.780215 98.953 9.0442
23.952536 99.045 7.6532
24.126106 99.148 6.2354
24.300934 99.262 4.7927
24.477028 99.386 3.3273
24.654399 99.519 1.8417
24.833055 99.660 0.3384
25.013005 99.806 -1.1806
25.194260 99.956 -2.7132
25.376828 100.107 -4.2580
25.560719 100.257 -5.8134
25.745942 100.405 -7.3783
25.932508 100.547 -8.9511
26.120426 100.683 -10.5304
26.309705 100.811 -12.1143
26.500356 100.930 -13.7009
26.692388 101.040 -15.2880
26.885812 101.141 -16.8735
27.080638 101.233 -18.4555
27.276876 101.317 -20.0321
27.474535 101.394 -21.6017
27.673627 101.466 -23.1632
27.874161 101.534 -24.7157
28.076149 101.602 -26.2586
28.279600 101.671 -27.7911
28.484526 101.743 -29.3130
28.690937 101.823 -30.8238
28.898843 101.911 -32.3232
29.108256 102.009 -33.8108
29.319186 102.118 -35.2868
29.531645 102.240 -36.7515
29.745644 102.371 -38.2058
29.961193 102.511 -39.6508
30.178304 102.657 -41.0884
30.396989 102.806 -42.5207
30.617258 102.952 -43.9502
30.839123 103.091 -45.3790
31.062596 103.219 -46.8095
31.287688 103.332 -48.2432
31.514412 103.425 -49.6813
31.742778 103.494 -51.1236
31.972800 103.538 -52.5693
32.204488 103.555 -54.0162
32.437855 103.542 -55.4610
32.672913 103.501 -56.8995
32.909674 103.432 -58.3265
33.148151 103.335 -59.7363
33.388356 103.215 -61.1232
33.630302 103.072 -62.4815
33.874001 102.911 -63.8067
34.119466 102.735 -65.0953
34.366710 102.549 -66.3453
34.615745 102.356 -67.5564
34.866585 102.159 -68.7300
35.119243 101.965 -69.8686
35.373731 101.774 -70.9760
35.630064 101.593 -72.0563
35.888254 101.423 -73.1137
36.148315 101.267 -74.1515
36.410261 101.130 -75.1725
36.674104 101.012 -76.1781
36.939860 100.916 -77.1687
37.207542 100.844 -78.1437
37.477163 100.797 -79.1019
37.748738 100.777 -80.0418
38.022281 100.783 -80.9622
38.297806 100.815 -81.8629
38.575327 100.873 -82.7444
38.854860 100.955 -83.6086
39.136419 101.060 -84.4585
39.420017 101.188 -85.2980
39.705671 101.337 -86.1317
39.993395 101.505 -86.9646
40.283203 101.692 -87.8017
40.575112 101.897 -88.6473
40.869136 102.117 -89.5052
41.165290 102.352 -90.3784
41.463591 102.600 -91.2687
41.764053 102.858 -92.1774
42.066693 103.124 -93.1054
42.371525 103.394 -94.0537
42.678567 103.667 -95.0234
42.987834 103.938 -96.0165
43.299341 104.204 -97.0353
43.613106 104.463 -98.0826
43.929145 104.710 -99.1614
44.247473 104.945 -100.2740
44.568109 105.164 -101.4224
44.891068 105.365 -102.6074
45.216367 105.548 -103.8288
45.544023 105.710 -105.0856
45.874054 105.852 -106.3761
46.206476 105.971 -107.6974
46.541307 106.069 -109.0466
46.878565 106.144 -110.4200
47.218266 106.196 -111.8135
47.560429 106.226 -113.2226
47.905072 106.233 -114.6423
48.252212 106.220 -116.0673
48.601867 106.186 -117.4922
48.954056 106.132 -118.9113
49.308798 106.062 -120.3190
49.666109 105.976 -121.7101
50.026010 105.877 -123.0798
50.388520 105.766 -124.4240
50.753656 105.646 -125.7387
51.121437 105.518 -127.0209
51.491884 105.386 -128.2674
51.865016 105.250 -129.4758
52.240851 105.111 -130.6441
52.619410 104.972 -131.7707
53.000712 104.833 -132.8551
53.384777 104.694 -133.8971
53.771625 104.556 -134.8975
54.161276 104.419 -135.8573
54.553751 104.282 -136.7780
54.949070 104.146 -137.6611
55.347254 104.009 -138.5079
55.748323 103.871 -139.3195
56.152298 103.732 -140.0968
56.559201 103.590 -140.8402
56.969052 103.447 -141.5499
57.381873 103.302 -142.2259
57.797686 103.154 -142.8685
58.216512 103.005 -143.4779
58.638373 102.855 -144.0548
59.063291 102.703 -144.6000
59.491288 102.551 -145.1144
59.922386 102.399 -145.5990
60.356608 102.248 -146.0549
60.793977 102.097 -146.4833
61.234515 101.949 -146.8856
61.678246 101.802 -147.2633
62.125192 101.658 -147.6183
62.575377 101.518 -147.9522
63.028824 101.381 -148.2669
63.485557 101.248 -148.5638
63.945599 101.119 -148.8440
64.408975 100.995 -149.1087
64.875709 100.876 -149.3587
65.345825 100.763 -149.5948
65.819348 100.655 -149.8180
66.296302 100.553 -150.0294
66.776713 100.456 -150.2302
67.260604 100.366 -150.4218
67.748002 100.281 -150.6055
68.238932 100.202 -150.7829
68.733420 100.129 -150.9554
69.231490 100.061 -151.1245
69.733170 99.998 -151.2915
70.238485 99.940 -151.4578
70.747463 99.887 -151.6246
71.260128 99.839 -151.7931
71.776508 99.795 -151.9642
72.296630 99.755 -152.1390
72.820521 99.719 -152.3183
73.348209 99.686 -152.5033
73.879720 99.657 -152.6949
74.415083 99.631 -152.8941
74.954326 99.607 -153.1017
75.497475 99.585 -153.3180
76.044561 99.565 -153.5433
76.595612 99.545 -153.7774
77.150655 99.525 -154.0200
77.709720 99.504 -154.2709
78.272837 99.481 -154.5297
78.840034 99.456 -154.7963
79.411342 99.428 -155.0703
79.986789 99.396 -155.3513
80.566406 99.361 -155.6389
81.150224 99.322 -155.9324
81.738272 99.279 -156.2312
82.330581 99.233 -156.5347
82.927182 99.185 -156.8422
83.528107 99.136 -157.1532
84.133386 99.086 -157.4671
84.743051 99.039 -157.7830
85.357134 98.997 -158.1001
85.975667 98.962 -158.4173
86.598682 98.938 -158.7332
87.226212 98.928 -159.0466
87.858289 98.935 -159.3564
88.494946 98.963 -159.6614
89.136217 99.013 -159.9609
89.782135 99.086 -160.2541
90.432733 99.182 -160.5405
91.088046 99.299 -160.8193
91.748108 99.434 -161.0903
92.412952 99.582 -161.3528
93.082615 99.739 -161.6066
93.757130 99.898 -161.8511
94.436533 100.055 -162.0859
95.120859 100.205 -162.3107
95.810144 100.343 -162.5250
96.504423 100.467 -162.7287
97.203734 100.574 -162.9214
97.908112 100.663 -163.1029
98.617595 100.735 -163.2728
99.332219 100.791 -163.4308
100.052021 100.831 -163.5771
100.777039 100.859 -163.7119
101.507311 100.876 -163.8356
102.242875 100.886 -163.9485
102.983769 100.889 -164.0513
103.730032 100.888 -164.1443
104.481702 100.883 -164.2280
105.238820 100.874 -164.3030
106.001424 100.861 -164.3698
106.769554 100.843 -164.4290
107.543250 100.818 -164.4815
108.322553 100.785 -164.5280
109.107503 100.742 -164.5696
109.898141 100.688 -164.6073
110.694508 100.622 -164.6422
111.496646 100.543 -164.6754
112.304596 100.453 -164.7077
113.118402 100.352 -164.7402
113.938104 100.242 -164.7743
114.763747 100.124 -164.8109
115.595372 100.002 -164.8510
116.433024 99.876 -164.8955
117.276746 99.750 -164.9451
118.126581 99.626 -165.0000
118.982575 99.503 -165.0607
119.844772 99.385 -165.1274
120.713217 99.269 -165.2004
121.587954 99.158 -165.2797
122.469031 99.049 -165.3655
123.356492 98.941 -165.4578
124.250384 98.834 -165.5568
125.150753 98.725 -165.6627
126.057647 98.613 -165.7758
126.971113 98.496 -165.8966
127.891198 98.373 -166.0255
128.817950 98.243 -166.1629
129.751418 98.106 -166.3092
130.691651 97.962 -166.4646
131.638696 97.810 -166.6290
132.592604 97.654 -166.8019
133.553425 97.493 -166.9829
134.521208 97.331 -167.1711
135.496004 97.171 -167.3652
136.477864 97.015 -167.5640
137.466839 96.867 -167.7659
138.462981 96.730 -167.9693
139.466340 96.607 -168.1726
140.476971 96.499 -168.3739
141.494925 96.408 -168.5718
142.520256 96.332 -168.7643
143.553016 96.270 -168.9495
144.593260 96.219 -169.1252
145.641043 96.177 -169.2891
146.696418 96.138 -169.4391
147.759441 96.100 -169.5729
148.830166 96.058 -169.6882
149.908651 96.011 -169.7830
150.994951 95.955 -169.8551
152.089123 95.890 -169.9021
153.191223 95.817 -169.9216
154.301310 95.734 -169.9111
155.419441 95.645 -169.8680
156.545674 95.550 -169.7898
157.680069 95.451 -169.6745
158.822683 95.350 -169.5202
159.973578 95.250 -169.3255
161.132813 95.150 -169.0897
162.300447 95.054 -168.8127
163.476543 94.961 -168.4949
164.661162 94.874 -168.1374
165.854364 94.792 -167.7416
167.056213 94.716 -167.3092
168.266772 94.648 -166.8424
169.486102 94.587 -166.3437
170.714268 94.536 -165.8159
171.951334 94.494 -165.2621
173.197364 94.463 -164.6855
174.452424 94.441 -164.0893
175.716578 94.430 -163.4767
176.989893 94.429 -162.8510
178.272434 94.436 -162.2154
179.564270 94.451 -161.5731
180.865467 94.473 -160.9273
182.176092 94.499 -160.2811
183.496216 94.529 -159.6374
184.825905 94.562 -158.9991
186.165229 94.597 -158.3689
187.514259 94.634 -157.7491
188.873065 94.672 -157.1419
190.241717 94.712 -156.5488
191.620287 94.754 -155.9715
193.008847 94.797 -155.4110
194.407468 94.843 -154.8681
195.816225 94.891 -154.3430
197.235190 94.941 -153.8358
198.664438 94.993 -153.3457
200.104042 95.046 -152.8719
201.554078 95.098 -152.4129
203.014622 95.151 -151.9674
204.485750 95.202 -151.5343
205.967538 95.251 -151.1127
207.460064 95.298 -150.7024
208.963405 95.342 -150.3035
210.477640 95.384 -149.9164
212.002848 95.424 -149.5410
213.539108 95.462 -149.1774
215.086500 95.497 -148.8250
216.645105 95.531 -148.4831
218.215005 95.563 -148.1507
219.796281 95.594 -147.8266
221.389015 95.623 -147.5098
222.993292 95.649 -147.1991
224.609193 95.673 -146.8937
226.236804 95.693 -146.5928
227.876209 95.709 -146.2959
229.527494 95.720 -146.0027
231.190745 95.728 -145.7131
232.866048 95.731 -145.4272
234.553491 95.730 -145.1449
236.253163 95.726 -144.8665
237.965150 95.720 -144.5924
239.689544 95.712 -144.3232
241.426433 95.705 -144.0597
243.175909 95.698 -143.8030
244.938062 95.692 -143.5541
246.712984 95.689 -143.3138
248.500768 95.689 -143.0827
250.301507 95.693 -142.8608
252.115295 95.702 -142.6480
253.942226 95.715 -142.4437
255.782396 95.734 -142.2475
257.635901 95.758 -142.0590
259.502837 95.789 -141.8781
261.383301 95.827 -141.7050
263.277392 95.872 -141.5403
265.185209 95.924 -141.3848
267.106850 95.983 -141.2397
269.042417 96.048 -141.1061
270.992009 96.120 -140.9854
272.955729 96.197 -140.8790
274.933678 96.280 -140.7879
276.925961 96.367 -140.7132
278.932681 96.459 -140.6554
280.953942 96.553 -140.6147
282.989850 96.651 -140.5907
285.040511 96.753 -140.5830
287.106032 96.858 -140.5906
289.186521 96.967 -140.6125
291.282086 97.081 -140.6477
293.392836 97.200 -140.6953
295.518881 97.324 -140.7548
297.660333 97.453 -140.8259
299.817302 97.587 -140.9083
301.989902 97.724 -141.0020
304.178245 97.864 -141.1071
306.382446 98.004 -141.2233
308.602620 98.142 -141.3508
310.838882 98.278 -141.4895
313.091348 98.409 -141.6392
315.360137 98.533 -141.7998
317.645367 98.649 -141.9713
319.947156 98.757 -142.1535
322.265625 98.856 -142.3465
324.600895 98.944 -142.5501
326.953086 99.022 -142.7642
329.322323 99.088 -142.9887
331.708729 99.144 -143.2233
334.112427 99.188 -143.4678
336.533543 99.221 -143.7220
338.972204 99.243 -143.9859
341.428536 99.256 -144.2595
343.902668 99.260 -144.5429
346.394729 99.257 -144.8365
348.904848 99.248 -145.1405
351.433156 99.235 -145.4554
353.979786 99.221 -145.7814
356.544869 99.207 -146.1189
359.128540 99.198 -146.4685
361.730934 99.194 -146.8307
364.352185 99.200 -147.2061
366.992431 99.216 -147.5954
369.651810 99.246 -147.9993
372.330459 99.290 -148.4181
375.028519 99.349 -148.8523
377.746130 99.423 -149.3016
380.483434 99.509 -149.7655
383.240574 99.607 -150.2430
386.017693 99.713 -150.7326
388.814937 99.825 -151.2320
391.632450 99.939 -151.7388
394.470380 100.053 -152.2499
397.328875 100.164 -152.7618
400.208084 100.270 -153.2709
403.108157 100.369 -153.7732
406.029245 100.461 -154.2647
408.971500 100.545 -154.7412
411.935076 100.621 -155.1986
414.920127 100.689 -155.6332
417.926810 100.752 -156.0414
420.955280 100.809 -156.4202
424.005695 100.864 -156.7671
427.078215 100.916 -157.0805
430.173000 100.968 -157.3597
433.290211 101.021 -157.6048
436.430010 101.076 -157.8172
439.592562 101.131 -157.9992
442.778031 101.188 -158.1539
445.986583 101.246 -158.2856
449.218386 101.302 -158.3989
452.473607 101.356 -158.4991
455.752418 101.406 -158.5915
459.054987 101.451 -158.6811
462.381489 101.488 -158.7726
465.732096 101.518 -158.8699
469.106983 101.539 -158.9759
472.506325 101.551 -159.0929
475.930301 101.554 -159.2220
479.379088 101.549 -159.3637
482.852867 101.536 -159.5178
486.351817 101.516 -159.6838
489.876123 101.490 -159.8608
493.425968 101.458 -160.0478
497.001536 101.421 -160.2439
500.603014 101.380 -160.4482
504.230589 101.334 -160.6600
507.884452 101.284 -160.8788
511.564792 101.230 -161.1039
515.271802 101.171 -161.3351
519.005673 101.109 -161.5718
522.766602 101.043 -161.8133
526.554785 100.975 -162.0589
530.370418 100.907 -162.3075
534.213700 100.839 -162.5582
538.084833 100.773 -162.8094
541.984018 100.712 -163.0599
545.911457 100.656 -163.3082
549.867357 100.607 -163.5528
553.851922 100.564 -163.7920
557.865362 100.527 -164.0241
561.907884 100.494 -164.2475
565.979700 100.466 -164.4604
570.081022 100.439 -164.6613
574.212064 100.412 -164.8484
578.373042 100.383 -165.0205
582.564171 100.350 -165.1760
586.785671 100.311 -165.3136
591.037762 100.267 -165.4323
595.320665 100.215 -165.5313
599.634604 100.156 -165.6101
603.979804 100.090 -165.6683
608.356491 100.017 -165.7063
612.764893 99.937 -165.7244
617.205240 99.852 -165.7237
621.677763 99.763 -165.7055
626.182696 99.672 -165.6717
630.720274 99.580 -165.6246
635.290733 99.490 -165.5670
639.894312 99.403 -165.5020
644.531250 99.322 -165.4330
649.201789 99.248 -165.3633
653.906173 99.182 -165.2963
658.644647 99.125 -165.2349
663.417457 99.077 -165.1817
668.224854 99.036 -165.1389
673.067086 99.002 -165.1081
677.944408 98.972 -165.0906
682.857073 98.945 -165.0872
687.805336 98.919 -165.0981
692.789457 98.890 -165.1234
697.809695 98.858 -165.1625
702.866312 98.820 -165.2142
707.959571 98.775 -165.2767
713.089738 98.721 -165.3473
718.257080 98.659 -165.4225
723.461867 98.586 -165.4975
728.704370 98.503 -165.5667
733.984862 98.409 -165.6230
739.303619 98.305 -165.6583
744.660918 98.192 -165.6636
750.057038 98.069 -165.6291
755.492260 97.938 -165.5443
760.966869 97.800 -165.3988
766.481148 97.656 -165.1826
772.035387 97.506 -164.8866
777.629873 97.352 -164.5030
783.264900 97.196 -164.0261
788.940760 97.038 -163.4527
794.657750 96.879 -162.7827
800.416168 96.721 -162.0195
806.216313 96.565 -161.1701
812.058489 96.413 -160.2450
817.943000 96.265 -159.2575
823.870152 96.123 -158.2229
829.840255 95.989 -157.1574
835.853619 95.862 -156.0772
841.910559 95.744 -154.9972
848.011390 95.636 -153.9306
854.156430 95.538 -152.8883
860.346000 95.451 -151.8792
866.580422 95.374 -150.9098
872.860020 95.308 -149.9849
879.185124 95.254 -149.1075
885.556062 95.210 -148.2793
891.973166 95.178 -147.5006
898.436771 95.158 -146.7709
904.947215 95.148 -146.0884
911.504835 95.151 -145.4508
918.109975 95.165 -144.8550
924.762978 95.190 -144.2974
931.464192 95.226 -143.7742
938.213966 95.274 -143.2815
945.012651 95.332 -142.8155
951.860602 95.401 -142.3733
958.758176 95.479 -141.9523
965.705733 95.567 -141.5514
972.703635 95.663 -141.1703
979.752246 95.768 -140.8100
986.851935 95.880 -140.4727
994.003071 95.999 -140.1613
1001.206027 96.125 -139.8792
1008.461179 96.257 -139.6300
1015.768904 96.395 -139.4171
1023.129584 96.540 -139.2435
1030.543603 96.691 -139.1116
1038.011347 96.848 -139.0228
1045.533205 97.010 -138.9783
1053.109569 97.178 -138.9781
1060.740836 97.350 -139.0222
1068.427401 97.525 -139.1098
1076.169666 97.702 -139.2400
1083.968035 97.879 -139.4114
1091.822915 98.054 -139.6224
1099.734713 98.225 -139.8712
1107.703844 98.388 -140.1554
1115.730723 98.543 -140.4723
1123.815768 98.687 -140.8186
1131.959400 98.817 -141.1901
1140.162045 98.933 -141.5816
1148.424129 99.033 -141.9868
1156.746083 99.117 -142.3976
1165.128342 99.185 -142.8044
1173.571343 99.237 -143.1958
1182.075524 99.274 -143.5590
1190.641331 99.299 -143.8799
1199.269209 99.313 -144.1444
1207.959608 99.318 -144.3389
1216.712981 99.318 -144.4514
1225.529785 99.314 -144.4725
1234.410479 99.310 -144.3956
1243.355526 99.307 -144.2176
1252.365393 99.309 -143.9388
1261.440549 99.318 -143.5638
1270.581467 99.335 -143.1014
1279.788624 99.363 -142.5655
1289.062500 99.402 -141.9742
1298.403578 99.455 -141.3492
1307.812346 99.520 -140.7140
1317.289293 99.599 -140.0920
1326.834914 99.689 -139.5044
1336.449707 99.790 -138.9693
1346.134173 99.899 -138.5002
1355.888816 100.014 -138.1065
1365.714145 100.133 -137.7938
1375.610673 100.254 -137.5645
1385.578915 100.375 -137.4188
1395.619391 100.493 -137.3551
1405.732624 100.608 -137.3705
1415.919142 100.718 -137.4611
1426.179476 100.822 -137.6221
1436.514160 100.920 -137.8481
1446.923734 101.012 -138.1328
1457.408740 101.097 -138.4699
1467.969724 101.176 -138.8527
1478.607238 101.250 -139.2743
1489.321836 101.317 -139.7280
1500.114076 101.380 -140.2071
1510.984521 101.437 -140.7053
1521.933737 101.489 -141.2166
1532.962297 101.536 -141.7353
1544.070773 101.579 -142.2567
1555.259747 101.616 -142.7766
1566.529800 101.648 -143.2915
1577.881521 101.675 -143.7988
1589.315501 101.695 -144.2962
1600.832336 101.709 -144.7820
1612.432627 101.717 -145.2547
1624.116978 101.717 -145.7127
1635.886000 101.710 -146.1538
1647.740304 101.695 -146.5743
1659.680509 101.671 -146.9687
1671.707238 101.639 -147.3293
1683.821118 101.598 -147.6465
1696.022780 101.551 -147.9099
1708.312860 101.498 -148.1091
1720.692000 101.441 -148.2353
1733.160843 101.383 -148.2824
1745.720041 101.326 -148.2485
1758.370248 101.272 -148.1361
1771.112124 101.225 -147.9529
1783.946332 101.184 -147.7109
1796.873543 101.153 -147.4256
1809.894429 101.129 -147.1144
1823.009670 101.114 -146.7951
1836.219950 101.105 -146.4837
1849.525956 101.102 -146.1936
1862.928384 101.102 -145.9341
1876.427931 101.103 -145.7095
1890.025301 101.104 -145.5196
1903.721204 101.103 -145.3596
1917.516352 101.098 -145.2215
1931.411466 101.089 -145.0947
1945.407270 101.075 -144.9682
1959.504493 101.057 -144.8322
1973.703870 101.033 -144.6793
1988.006142 101.004 -144.5057
2002.412054 100.970 -144.3107
2016.922357 100.931 -144.0954
2031.537808 100.885 -143.8611
2046.259169 100.831 -143.6085
2061.087206 100.770 -143.3371
2076.022694 100.701 -143.0458
2091.066410 100.624 -142.7342
2106.219139 100.541 -142.4027
2121.481671 100.451 -142.0535
2136.854802 100.358 -141.6896
2152.339333 100.261 -141.3148
2167.936071 100.162 -140.9316
2183.645829 100.063 -140.5412
2199.469427 99.964 -140.1421
2215.407689 99.867 -139.7315
2231.461446 99.772 -139.3052
2247.631536 99.682 -138.8596
2263.918800 99.597 -138.3931
2280.324089 99.519 -137.9069
2296.848258 99.450 -137.4058
2313.492167 99.389 -136.8977
2330.256685 99.338 -136.3924
2347.142685 99.296 -135.8999
2364.151049 99.262 -135.4287
2381.282662 99.235 -134.9848
2398.538418 99.214 -134.5721
2415.919216 99.197 -134.1932
2433.425962 99.184 -133.8495
2451.059570 99.174 -133.5423
2468.820958 99.166 -133.2719
2486.711052 99.159 -133.0377
2504.730786 99.152 -132.8374
2522.881098 99.145 -132.6672
2541.162934 99.136 -132.5210
2559.577248 99.127 -132.3910
2578.125000 99.116 -132.2675
2596.807157 99.103 -132.1379
2615.624692 99.089 -131.9859
2634.578586 99.075 -131.7910
2653.669829 99.063 -131.5282
2672.899414 99.055 -131.1706
2692.268345 99.056 -130.6927
2711.777632 99.071 -130.0760
2731.428290 99.106 -129.3142
2751.221345 99.166 -128.4173
2771.157829 99.256 -127.4129
2791.238781 99.376 -126.3434
2811.465248 99.526 -125.2599
2831.838284 99.700 -124.2137
2852.358952 99.895 -123.2483
2873.028321 100.101 -122.3943
2893.847468 100.314 -121.6680
2914.817480 100.526 -121.0728
2935.939449 100.733 -120.6033
2957.214476 100.932 -120.2483
2978.643672 101.120 -119.9947
3000.228152 101.296 -119.8297
3021.969041 101.459 -119.7421
3043.867475 101.611 -119.7230
3065.924593 101.749 -119.7660
3088.141547 101.877 -119.8659
3110.519493 101.992 -120.0178
3133.059600 102.097 -120.2159
3155.763041 102.191 -120.4535
3178.631001 102.276 -120.7236
3201.664672 102.353 -121.0195
3224.865254 102.423 -121.3366
3248.233957 102.488 -121.6729
3271.771999 102.549 -122.0296
3295.480608 102.609 -122.4107
3319.361019 102.666 -122.8228
3343.414477 102.723 -123.2733
3367.642236 102.778 -123.7697
3392.045560 102.831 -124.3183
3416.625721 102.881 -124.9241
3441.383999 102.927 -125.5900
3466.321686 102.968 -126.3173
3491.440082 103.002 -127.1052
3516.740496 103.028 -127.9505
3542.224247 103.043 -128.8472
3567.892664 103.045 -129.7841
3593.747085 103.031 -130.7442
3619.788858 103.000 -131.7018
3646.019340 102.949 -132.6215
3672.439900 102.876 -133.4579
3699.051913 102.784 -134.1570
3725.856768 102.675 -134.6604
3752.855862 102.556 -134.9134
3780.050603 102.436 -134.8766
3807.442408 102.329 -134.5393
3835.032705 102.247 -133.9303
3862.822933 102.200 -133.1190
3890.814540 102.194 -132.2032
3919.008986 102.229 -131.2867
3947.407741 102.301 -130.4558
3976.012284 102.402 -129.7658
4004.824108 102.522 -129.2391
4033.844715 102.656 -128.8736
4063.075616 102.797 -128.6543
4092.518337 102.942 -128.5648
4122.174412 103.089 -128.5926
4152.045387 103.235 -128.7297
4182.132820 103.377 -128.9700
4212.438278 103.514 -129.3059
4242.963342 103.642 -129.7270
4273.709604 103.760 -130.2204
4304.678665 103.866 -130.7723
4335.872141 103.961 -131.3698
4367.291658 104.044 -132.0022
4398.938854 104.115 -132.6610
4430.815378 104.172 -133.3390
4462.922893 104.216 -134.0285
4495.263072 104.247 -134.7217
4527.837601 104.263 -135.4106
4560.648179 104.265 -136.0875
4593.696515 104.252 -136.7447
4626.984334 104.226 -137.3748
4660.513370 104.186 -137.9699
4694.285371 104.133 -138.5209
4728.302098 104.069 -139.0179
4762.565324 103.995 -139.4514
4797.076835 103.915 -139.8143
4831.838432 103.832 -140.1040
4866.851925 103.750 -140.3243
4902.119140 103.672 -140.4850
4937.641916 103.603 -140.6003
4973.422105 103.544 -140.6857
5009.461572 103.496 -140.7554
5045.762195 103.461 -140.8215
5082.325868 103.439 -140.8934
5119.154496 103.430 -140.9791
5156.250000 103.435 -141.0862
5193.614313 103.452 -141.2225
5231.249383 103.481 -141.3963
5269.157173 103.522 -141.6147
5307.339658 103.573 -141.8835
5345.798829 103.633 -142.2066
5384.536691 103.701 -142.5869
5423.555263 103.777 -143.0273
5462.856580 103.860 -143.5320
5502.442691 103.950 -144.1063
5542.315659 104.048 -144.7565
5582.477563 104.152 -145.4881
5622.930497 104.263 -146.3060
5663.676569 104.381 -147.2151
5704.717904 104.508 -148.2211
5746.056642 104.642 -149.3321
5787.694937 104.784 -150.5597
5829.634960 104.934 -151.9182
5871.878898 105.088 -153.4230
5914.428953 105.244 -155.0871
5957.287343 105.395 -156.9185
6000.456303 105.537 -158.9181
6043.938083 105.663 -161.0802
6087.734950 105.769 -163.3936
6131.849187 105.850 -165.8428
6176.283094 105.900 -168.4081
6221.038987 105.914 -171.0658
6266.119200 105.889 -173.7882
6311.526083 105.822 -176.5446
6357.262002 105.711 -179.3031
6403.329344 105.554 177.9694
6449.730508 105.350 175.3060
6496.467914 105.100 172.7411
6543.543998 104.804 170.3104
6590.961215 104.463 168.0515
6638.722037 104.078 166.0041
6686.828954 103.652 164.2096
6735.284473 103.189 162.7103
6784.091120 102.694 161.5490
6833.251441 102.173 160.7675
6882.767998 101.635 160.4044
6932.643372 101.091 160.4908
6982.880164 100.553 161.0450
7033.480992 100.037 162.0649
7084.448495 99.562 163.5200
7135.785329 99.146 165.3449
7187.494171 98.807 167.4363
7239.577717 98.560 169.6568
7292.038681 98.414 171.8463
7344.879799 98.366 173.8409
7398.103826 98.409 175.4927
7451.713536 98.523 176.6856
7505.711724 98.687 177.3444
7560.101205 98.877 177.4355
7614.884815 99.069 176.9628
7670.065409 99.240 175.9610
7725.645865 99.373 174.4892
7781.629080 99.451 172.6248
7838.017972 99.462 170.4599
7894.815481 99.397 168.0999
7952.024569 99.248 165.6619
8009.648217 99.015 163.2731
8067.689429 98.699 161.0703
8126.151233 98.306 159.2035
8185.036674 97.846 157.8489
8244.348824 97.334 157.2307
8304.090774 96.789 157.6535
8364.265639 96.241 159.5440
8424.876556 95.729 163.4825
8485.926684 95.299 170.1349
8547.419207 95.004 179.8592
8609.357330 94.886 -168.1435
8671.744282 94.966 -156.1695
8734.583316 95.233 -146.5336
8797.877707 95.652 -140.0563
8861.630756 96.176 -136.3735
8925.845785 96.757 -134.7976
8990.526143 97.359 -134.7276
9055.675202 97.956 -135.7261
9121.296357 98.531 -137.4907
9187.393031 99.074 -139.8127
9253.968668 99.580 -142.5443
9321.026740 100.050 -145.5797
9388.570742 100.484 -148.8450
9456.604196 100.886 -152.2933
9525.130648 101.257 -155.8990
9594.153671 101.601 -159.6528
9663.676863 101.915 -163.5562
9733.703850 102.199 -167.6172
9804.238280 102.447 -171.8455
9875.283832 102.655 -176.2474
9946.844210 102.813 179.1794
10018.923143 102.915 174.4500
10091.524390 102.952 169.5938
10164.651736 102.919 164.6546
10238.308993 102.814 159.6855
10312.500000 102.637 154.7401
10387.228626 102.394 149.8634
10462.498767 102.092 145.0887
10538.314345 101.739 140.4379
10614.679315 101.343 135.9237
10691.597657 100.913 131.5507
10769.073381 100.456 127.3168
10847.110526 99.978 123.2153
10925.713161 99.483 119.2365
11004.885382 98.974 115.3701
11084.631318 98.452 111.6068
11164.955126 97.917 107.9404
11245.860993 97.367 104.3693
11327.353138 96.801 100.8940
11409.435808 96.217 97.5157
11492.113283 95.614 94.2336
11575.389873 94.993 91.0442
11659.269920 94.354 87.9397
11743.757796 93.698 84.9089
11828.857906 93.028 81.9368
11914.574686 92.346 79.0058
12000.912606 91.654 76.0959
12087.876166 90.956 73.1850
12175.469900 90.254 70.2478
12263.698373 89.553 67.2537
12352.566187 88.859 64.1633
12442.077974 88.178 60.9259
12532.238400 87.521 57.4768
12623.052165 86.897 53.7343
12714.524005 86.319 49.5976
12806.658687 85.801 44.9431
12899.461015 85.358 39.6206
12992.935827 85.003 33.4507
13087.087996 84.745 26.2218
13181.922430 84.588 17.6954
13277.444074 84.533 7.6256
13373.657907 84.571 -4.1840
13470.568945 84.695 -17.7601
13568.182241 84.889 -32.8019
13666.502883 85.142 -48.6119
13765.535996 85.440 -64.2833
13865.286744 85.769 -79.0641
13965.760328 86.118 -92.5818
14066.961984 86.479 -104.8035
14168.896989 86.846 -115.8763
14271.570658 87.216 -125.9987
14374.988342 87.591 -135.3565
14479.155433 87.975 -144.1049
14584.077362 88.375 -152.3696
14689.759598 88.797 -160.2560
14796.207652 89.248 -167.8575
14903.427072 89.730 -175.2621
15011.423448 90.242 177.4448
15120.202410 90.779 170.1807
15229.769630 91.332 162.8666
15340.130819 91.890 155.4309
15451.291730 92.441 147.8110
15563.258160 92.972 139.9565
15676.035944 93.472 131.8304
15789.630962 93.928 123.4107
15904.049137 94.332 114.6898
16019.296433 94.674 105.6749
16135.378859 94.948 96.3868
16252.302465 95.147 86.8592
16370.073348 95.269 77.1364
16488.697648 95.312 67.2713
16608.181548 95.281 57.3223
16728.531278 95.182 47.3472
16849.753112 95.031 37.3951
16971.853368 94.849 27.4987
17094.838414 94.666 17.6634
17218.714660 94.515 7.8621
17343.488565 94.434 -1.9664
17469.166632 94.452 -11.9109
17595.755415 94.584 -22.0742
17723.261512 94.829 -32.5551
17851.691571 95.168 -43.4332
17981.052287 95.574 -54.7578
18111.350404 96.017 -66.5429
18242.592715 96.468 -78.7705
18374.786062 96.904 -91.3969
18507.937336 97.303 -104.3643
18642.053479 97.651 -117.6168
18777.141484 97.934 -131.1350
18913.208391 98.147 -145.0177
19050.261296 98.288 -159.7297
19188.307342 98.362 -177.0371
19327.353727 98.378 154.8691
19467.407699 98.350 82.5898
19608.476560 98.295 29.2289
19750.567664 98.232 11.2999
19893.688419 98.178 2.9739
20037.846286 98.147 -0.6427
