* Measurement data measured by REW V5.31.3
* Source: EXCL: Headset (USB-C to 3.5mm Headphone Jack Adapter), MICROPHONE (Master Volume), 0, volume: 0.260
* Format: 256k Log Swept Sine, 1 sweep at -12.0 dBFS with no timing reference
* Dated: Feb 10, 2025 1:46:01 PM
* REW Settings:
*  C-weighting compensation: Off
*  Target level: 75.0 dB
* Note: ; 
* Measurement: Maxwell L1
* Smoothing: 1/6 octave
* Frequency Step: 96 ppo
* Start Frequency: 20.0 Hz
*
* Freq(Hz) SPL(dB) Phase(degrees)
20.141602 98.432 25.5276
20.287556 98.465 25.1111
20.434568 98.508 24.5530
20.582645 98.559 23.8674
20.731796 98.615 23.0683
20.882027 98.674 22.1695
21.033346 98.734 21.1828
21.185763 98.793 20.1187
21.339284 98.850 18.9862
21.493917 98.903 17.7934
21.649671 98.952 16.5483
21.806553 98.998 15.2588
21.964572 99.039 13.9330
22.123737 99.076 12.5795
22.284054 99.110 11.2070
22.445534 99.141 9.8236
22.608183 99.170 8.4375
22.772012 99.198 7.0552
22.937027 99.228 5.6822
23.103238 99.260 4.3223
23.270654 99.297 2.9772
23.439282 99.340 1.6468
23.609133 99.392 0.3292
23.780215 99.455 -0.9787
23.952536 99.529 -2.2814
24.126106 99.615 -3.5838
24.300934 99.713 -4.8909
24.477028 99.824 -6.2071
24.654399 99.945 -7.5362
24.833055 100.075 -8.8810
25.013005 100.213 -10.2431
25.194260 100.355 -11.6231
25.376828 100.499 -13.0208
25.560719 100.644 -14.4354
25.745942 100.786 -15.8658
25.932508 100.924 -17.3106
26.120426 101.057 -18.7687
26.309705 101.183 -20.2389
26.500356 101.300 -21.7203
26.692388 101.410 -23.2124
26.885812 101.510 -24.7145
27.080638 101.601 -26.2261
27.276876 101.683 -27.7469
27.474535 101.757 -29.2762
27.673627 101.825 -30.8134
27.874161 101.887 -32.3578
28.076149 101.946 -33.9082
28.279600 102.005 -35.4633
28.484526 102.066 -37.0213
28.690937 102.131 -38.5797
28.898843 102.204 -40.1358
29.108256 102.286 -41.6861
29.319186 102.379 -43.2268
29.531645 102.483 -44.7534
29.745644 102.597 -46.2619
29.961193 102.721 -47.7479
30.178304 102.852 -49.2077
30.396989 102.986 -50.6384
30.617258 103.119 -52.0377
30.839123 103.248 -53.4043
31.062596 103.367 -54.7376
31.287688 103.472 -56.0380
31.514412 103.559 -57.3061
31.742778 103.623 -58.5428
31.972800 103.663 -59.7492
32.204488 103.676 -60.9266
32.437855 103.660 -62.0757
32.672913 103.616 -63.1976
32.909674 103.543 -64.2929
33.148151 103.443 -65.3623
33.388356 103.319 -66.4061
33.630302 103.173 -67.4247
33.874001 103.010 -68.4179
34.119466 102.832 -69.3855
34.366710 102.644 -70.3271
34.615745 102.452 -71.2426
34.866585 102.260 -72.1320
35.119243 102.072 -72.9960
35.373731 101.894 -73.8357
35.630064 101.728 -74.6534
35.888254 101.581 -75.4518
36.148315 101.454 -76.2344
36.410261 101.350 -77.0049
36.674104 101.271 -77.7677
36.939860 101.219 -78.5270
37.207542 101.195 -79.2872
37.477163 101.199 -80.0525
37.748738 101.230 -80.8273
38.022281 101.288 -81.6153
38.297806 101.372 -82.4201
38.575327 101.481 -83.2446
38.854860 101.613 -84.0914
39.136419 101.768 -84.9624
39.420017 101.942 -85.8595
39.705671 102.136 -86.7842
39.993395 102.348 -87.7384
40.283203 102.575 -88.7236
40.575112 102.817 -89.7415
40.869136 103.072 -90.7937
41.165290 103.337 -91.8815
41.463591 103.611 -93.0056
41.764053 103.890 -94.1664
42.066693 104.173 -95.3637
42.371525 104.456 -96.5969
42.678567 104.737 -97.8650
42.987834 105.011 -99.1666
43.299341 105.276 -100.4996
43.613106 105.528 -101.8618
43.929145 105.764 -103.2499
44.247473 105.981 -104.6603
44.568109 106.177 -106.0886
44.891068 106.351 -107.5297
45.216367 106.500 -108.9781
45.544023 106.623 -110.4279
45.874054 106.722 -111.8728
46.206476 106.796 -113.3064
46.541307 106.845 -114.7225
46.878565 106.872 -116.1152
47.218266 106.877 -117.4795
47.560429 106.862 -118.8114
47.905072 106.829 -120.1085
48.252212 106.780 -121.3701
48.601867 106.717 -122.5970
48.954056 106.640 -123.7918
49.308798 106.553 -124.9579
49.666109 106.456 -126.0992
50.026010 106.351 -127.2198
50.388520 106.239 -128.3230
50.753656 106.123 -129.4111
51.121437 106.002 -130.4856
51.491884 105.878 -131.5464
51.865016 105.752 -132.5922
52.240851 105.626 -133.6211
52.619410 105.499 -134.6305
53.000712 105.372 -135.6173
53.384777 105.246 -136.5790
53.771625 105.120 -137.5131
54.161276 104.994 -138.4178
54.553751 104.869 -139.2917
54.949070 104.744 -140.1337
55.347254 104.618 -140.9430
55.748323 104.491 -141.7191
56.152298 104.362 -142.4618
56.559201 104.231 -143.1708
56.969052 104.097 -143.8460
57.381873 103.961 -144.4874
57.797686 103.823 -145.0952
58.216512 103.683 -145.6699
58.638373 103.541 -146.2122
59.063291 103.398 -146.7228
59.491288 103.255 -147.2027
59.922386 103.112 -147.6530
60.356608 102.970 -148.0751
60.793977 102.829 -148.4706
61.234515 102.689 -148.8412
61.678246 102.552 -149.1888
62.125192 102.416 -149.5152
62.575377 102.284 -149.8222
63.028824 102.155 -150.1115
63.485557 102.029 -150.3846
63.945599 101.908 -150.6431
64.408975 101.791 -150.8886
64.875709 101.680 -151.1227
65.345825 101.574 -151.3473
65.819348 101.475 -151.5640
66.296302 101.382 -151.7745
66.776713 101.296 -151.9803
67.260604 101.215 -152.1827
67.748002 101.141 -152.3826
68.238932 101.073 -152.5803
68.733420 101.009 -152.7761
69.231490 100.951 -152.9697
69.733170 100.897 -153.1610
70.238485 100.847 -153.3499
70.747463 100.801 -153.5367
71.260128 100.759 -153.7216
71.776508 100.721 -153.9053
72.296630 100.686 -154.0890
72.820521 100.655 -154.2742
73.348209 100.628 -154.4627
73.879720 100.605 -154.6570
74.415083 100.585 -154.8593
74.954326 100.568 -155.0720
75.497475 100.553 -155.2970
76.044561 100.540 -155.5354
76.595612 100.527 -155.7878
77.150655 100.514 -156.0542
77.709720 100.500 -156.3338
78.272837 100.484 -156.6254
78.840034 100.465 -156.9278
79.411342 100.442 -157.2394
79.986789 100.415 -157.5591
80.566406 100.384 -157.8856
81.150224 100.349 -158.2178
81.738272 100.309 -158.5545
82.330581 100.265 -158.8946
82.927182 100.218 -159.2370
83.528107 100.169 -159.5805
84.133386 100.121 -159.9241
84.743051 100.074 -160.2672
85.357134 100.033 -160.6092
85.975667 99.999 -160.9501
86.598682 99.976 -161.2896
87.226212 99.969 -161.6277
87.858289 99.979 -161.9639
88.494946 100.010 -162.2978
89.136217 100.063 -162.6290
89.782135 100.140 -162.9571
90.432733 100.239 -163.2814
91.088046 100.359 -163.6015
91.748108 100.497 -163.9165
92.412952 100.647 -164.2256
93.082615 100.806 -164.5279
93.757130 100.966 -164.8225
94.436533 101.124 -165.1086
95.120859 101.274 -165.3856
95.810144 101.413 -165.6529
96.504423 101.536 -165.9102
97.203734 101.644 -166.1568
97.908112 101.733 -166.3922
98.617595 101.806 -166.6159
99.332219 101.862 -166.8273
100.052021 101.903 -167.0263
100.777039 101.932 -167.2129
101.507311 101.951 -167.3872
102.242875 101.961 -167.5494
102.983769 101.965 -167.6996
103.730032 101.963 -167.8380
104.481702 101.957 -167.9644
105.238820 101.947 -168.0789
106.001424 101.932 -168.1818
106.769554 101.911 -168.2736
107.543250 101.883 -168.3551
108.322553 101.845 -168.4274
109.107503 101.798 -168.4916
109.898141 101.739 -168.5493
110.694508 101.669 -168.6019
111.496646 101.586 -168.6511
112.304596 101.492 -168.6985
113.118402 101.387 -168.7457
113.938104 101.273 -168.7938
114.763747 101.153 -168.8440
115.595372 101.027 -168.8972
116.433024 100.899 -168.9538
117.276746 100.770 -169.0144
118.126581 100.643 -169.0792
118.982575 100.518 -169.1484
119.844772 100.397 -169.2222
120.713217 100.280 -169.3009
121.587954 100.166 -169.3849
122.469031 100.056 -169.4743
123.356492 99.948 -169.5698
124.250384 99.841 -169.6719
125.150753 99.732 -169.7816
126.057647 99.621 -169.9000
126.971113 99.505 -170.0284
127.891198 99.384 -170.1680
128.817950 99.257 -170.3201
129.751418 99.122 -170.4853
130.691651 98.980 -170.6638
131.638696 98.831 -170.8554
132.592604 98.677 -171.0591
133.553425 98.519 -171.2733
134.521208 98.360 -171.4963
135.496004 98.202 -171.7260
136.477864 98.050 -171.9605
137.466839 97.905 -172.1976
138.462981 97.771 -172.4358
139.466340 97.651 -172.6731
140.476971 97.546 -172.9078
141.494925 97.457 -173.1382
142.520256 97.384 -173.3624
143.553016 97.326 -173.5784
144.593260 97.278 -173.7843
145.641043 97.239 -173.9780
146.696418 97.204 -174.1573
147.759441 97.169 -174.3203
148.830166 97.131 -174.4650
149.908651 97.087 -174.5894
150.994951 97.036 -174.6918
152.089123 96.975 -174.7705
153.191223 96.906 -174.8234
154.301310 96.828 -174.8486
155.419441 96.743 -174.8444
156.545674 96.653 -174.8088
157.680069 96.560 -174.7404
158.822683 96.466 -174.6380
159.973578 96.372 -174.5010
161.132813 96.281 -174.3291
162.300447 96.193 -174.1226
163.476543 96.110 -173.8822
164.661162 96.032 -173.6091
165.854364 95.960 -173.3053
167.056213 95.895 -172.9729
168.266772 95.837 -172.6143
169.486102 95.787 -172.2322
170.714268 95.745 -171.8293
171.951334 95.712 -171.4082
173.197364 95.689 -170.9716
174.452424 95.674 -170.5221
175.716578 95.669 -170.0624
176.989893 95.672 -169.5952
178.272434 95.682 -169.1232
179.564270 95.699 -168.6493
180.865467 95.722 -168.1762
182.176092 95.748 -167.7065
183.496216 95.776 -167.2424
184.825905 95.807 -166.7862
186.165229 95.838 -166.3396
187.514259 95.870 -165.9043
188.873065 95.902 -165.4817
190.241717 95.935 -165.0732
191.620287 95.968 -164.6797
193.008847 96.003 -164.3024
194.407468 96.039 -163.9419
195.816225 96.076 -163.5988
197.235190 96.113 -163.2732
198.664438 96.151 -162.9651
200.104042 96.189 -162.6741
201.554078 96.225 -162.3997
203.014622 96.259 -162.1410
204.485750 96.290 -161.8966
205.967538 96.318 -161.6653
207.460064 96.343 -161.4453
208.963405 96.363 -161.2351
210.477640 96.379 -161.0328
212.002848 96.392 -160.8369
213.539108 96.402 -160.6460
215.086500 96.409 -160.4587
216.645105 96.413 -160.2739
218.215005 96.415 -160.0903
219.796281 96.415 -159.9069
221.389015 96.412 -159.7228
222.993292 96.407 -159.5370
224.609193 96.397 -159.3488
226.236804 96.384 -159.1574
227.876209 96.366 -158.9622
229.527494 96.342 -158.7628
231.190745 96.313 -158.5583
232.866048 96.278 -158.3483
234.553491 96.239 -158.1320
236.253163 96.195 -157.9088
237.965150 96.148 -157.6781
239.689544 96.099 -157.4396
241.426433 96.049 -157.1935
243.175909 95.999 -156.9399
244.938062 95.951 -156.6793
246.712984 95.906 -156.4122
248.500768 95.865 -156.1392
250.301507 95.828 -155.8610
252.115295 95.797 -155.5782
253.942226 95.772 -155.2915
255.782396 95.754 -155.0020
257.635901 95.744 -154.7106
259.502837 95.742 -154.4188
261.383301 95.750 -154.1283
263.277392 95.766 -153.8410
265.185209 95.792 -153.5593
267.106850 95.828 -153.2858
269.042417 95.872 -153.0231
270.992009 95.926 -152.7741
272.955729 95.987 -152.5411
274.933678 96.056 -152.3265
276.925961 96.132 -152.1325
278.932681 96.213 -151.9611
280.953942 96.300 -151.8143
282.989850 96.391 -151.6938
285.040511 96.487 -151.6009
287.106032 96.588 -151.5370
289.186521 96.692 -151.5031
291.282086 96.802 -151.5000
293.392836 96.917 -151.5280
295.518881 97.036 -151.5872
297.660333 97.159 -151.6770
299.817302 97.285 -151.7965
301.989902 97.412 -151.9441
304.178245 97.540 -152.1180
306.382446 97.665 -152.3161
308.602620 97.786 -152.5360
310.838882 97.901 -152.7753
313.091348 98.008 -153.0312
315.360137 98.105 -153.3004
317.645367 98.191 -153.5794
319.947156 98.265 -153.8644
322.265625 98.325 -154.1512
324.600895 98.372 -154.4356
326.953086 98.404 -154.7130
329.322323 98.423 -154.9791
331.708729 98.427 -155.2297
334.112427 98.417 -155.4608
336.533543 98.394 -155.6690
338.972204 98.358 -155.8514
341.428536 98.311 -156.0057
343.902668 98.254 -156.1304
346.394729 98.189 -156.2247
348.904848 98.119 -156.2886
351.433156 98.045 -156.3229
353.979786 97.971 -156.3294
356.544869 97.900 -156.3107
359.128540 97.835 -156.2701
361.730934 97.780 -156.2113
364.352185 97.738 -156.1384
366.992431 97.712 -156.0557
369.651810 97.705 -155.9673
372.330459 97.718 -155.8769
375.028519 97.752 -155.7880
377.746130 97.807 -155.7036
380.483434 97.883 -155.6263
383.240574 97.976 -155.5581
386.017693 98.086 -155.5004
388.814937 98.207 -155.4544
391.632450 98.338 -155.4206
394.470380 98.476 -155.3995
397.328875 98.617 -155.3912
400.208084 98.758 -155.3957
403.108157 98.899 -155.4131
406.029245 99.038 -155.4434
408.971500 99.173 -155.4866
411.935076 99.305 -155.5426
414.920127 99.434 -155.6116
417.926810 99.560 -155.6933
420.955280 99.684 -155.7876
424.005695 99.807 -155.8943
427.078215 99.928 -156.0130
430.173000 100.049 -156.1436
433.290211 100.170 -156.2855
436.430010 100.290 -156.4384
439.592562 100.408 -156.6019
442.778031 100.524 -156.7756
445.986583 100.637 -156.9591
449.218386 100.744 -157.1521
452.473607 100.844 -157.3544
455.752418 100.936 -157.5657
459.054987 101.018 -157.7859
462.381489 101.090 -158.0148
465.732096 101.150 -158.2525
469.106983 101.198 -158.4990
472.506325 101.235 -158.7541
475.930301 101.261 -159.0181
479.379088 101.277 -159.2908
482.852867 101.284 -159.5722
486.351817 101.282 -159.8624
489.876123 101.274 -160.1613
493.425968 101.259 -160.4689
497.001536 101.238 -160.7851
500.603014 101.212 -161.1100
504.230589 101.182 -161.4436
507.884452 101.146 -161.7858
511.564792 101.105 -162.1367
515.271802 101.059 -162.4959
519.005673 101.008 -162.8632
522.766602 100.953 -163.2379
526.554785 100.895 -163.6189
530.370418 100.834 -164.0052
534.213700 100.773 -164.3950
538.084833 100.713 -164.7864
541.984018 100.656 -165.1770
545.911457 100.603 -165.5641
549.867357 100.554 -165.9447
553.851922 100.510 -166.3152
557.865362 100.471 -166.6723
561.907884 100.435 -167.0125
565.979700 100.402 -167.3325
570.081022 100.370 -167.6293
574.212064 100.337 -167.9006
578.373042 100.302 -168.1447
582.564171 100.263 -168.3609
586.785671 100.221 -168.5497
591.037762 100.173 -168.7123
595.320665 100.121 -168.8513
599.634604 100.062 -168.9699
603.979804 99.998 -169.0723
608.356491 99.929 -169.1627
612.764893 99.855 -169.2457
617.205240 99.776 -169.3259
621.677763 99.695 -169.4074
626.182696 99.610 -169.4940
630.720274 99.525 -169.5891
635.290733 99.439 -169.6951
639.894312 99.355 -169.8139
644.531250 99.273 -169.9467
649.201789 99.195 -170.0938
653.906173 99.120 -170.2545
658.644647 99.049 -170.4276
663.417457 98.982 -170.6109
668.224854 98.918 -170.8016
673.067086 98.854 -170.9959
677.944408 98.789 -171.1894
682.857073 98.722 -171.3767
687.805336 98.649 -171.5520
692.789457 98.571 -171.7085
697.809695 98.484 -171.8392
702.866312 98.388 -171.9362
707.959571 98.282 -171.9914
713.089738 98.166 -171.9966
718.257080 98.040 -171.9434
723.461867 97.905 -171.8239
728.704370 97.762 -171.6308
733.984862 97.612 -171.3579
739.303619 97.457 -171.0002
744.660918 97.301 -170.5548
750.057038 97.145 -170.0210
755.492260 96.991 -169.4005
760.966869 96.842 -168.6982
766.481148 96.701 -167.9218
772.035387 96.568 -167.0818
777.629873 96.444 -166.1911
783.264900 96.330 -165.2643
788.940760 96.225 -164.3164
794.657750 96.128 -163.3621
800.416168 96.038 -162.4147
806.216313 95.953 -161.4853
812.058489 95.872 -160.5822
817.943000 95.793 -159.7106
823.870152 95.715 -158.8730
829.840255 95.636 -158.0690
835.853619 95.556 -157.2961
841.910559 95.475 -156.5503
848.011390 95.393 -155.8265
854.156430 95.312 -155.1193
860.346000 95.231 -154.4236
866.580422 95.153 -153.7349
872.860020 95.078 -153.0502
879.185124 95.009 -152.3676
885.556062 94.947 -151.6867
891.973166 94.894 -151.0087
898.436771 94.851 -150.3353
904.947215 94.821 -149.6696
911.504835 94.804 -149.0147
918.109975 94.802 -148.3748
924.762978 94.816 -147.7542
931.464192 94.845 -147.1578
938.213966 94.890 -146.5909
945.012651 94.951 -146.0588
951.860602 95.026 -145.5667
958.758176 95.113 -145.1190
965.705733 95.212 -144.7195
972.703635 95.320 -144.3708
979.752246 95.436 -144.0745
986.851935 95.558 -143.8307
994.003071 95.684 -143.6389
1001.206027 95.814 -143.4978
1008.461179 95.946 -143.4054
1015.768904 96.080 -143.3594
1023.129584 96.217 -143.3577
1030.543603 96.356 -143.3981
1038.011347 96.496 -143.4788
1045.533205 96.640 -143.5979
1053.109569 96.785 -143.7539
1060.740836 96.931 -143.9449
1068.427401 97.077 -144.1691
1076.169666 97.223 -144.4237
1083.968035 97.365 -144.7056
1091.822915 97.501 -145.0103
1099.734713 97.630 -145.3322
1107.703844 97.749 -145.6639
1115.730723 97.855 -145.9956
1123.815768 97.946 -146.3151
1131.959400 98.021 -146.6078
1140.162045 98.079 -146.8565
1148.424129 98.121 -147.0427
1156.746083 98.149 -147.1479
1165.128342 98.166 -147.1556
1173.571343 98.175 -147.0537
1182.075524 98.182 -146.8367
1190.641331 98.192 -146.5071
1199.269209 98.210 -146.0753
1207.959608 98.241 -145.5590
1216.712981 98.286 -144.9811
1225.529785 98.347 -144.3672
1234.410479 98.426 -143.7434
1243.355526 98.519 -143.1341
1252.365393 98.627 -142.5600
1261.440549 98.745 -142.0375
1270.581467 98.871 -141.5784
1279.788624 99.003 -141.1897
1289.062500 99.137 -140.8749
1298.403578 99.273 -140.6347
1307.812346 99.408 -140.4677
1317.289293 99.542 -140.3717
1326.834914 99.673 -140.3443
1336.449707 99.800 -140.3830
1346.134173 99.923 -140.4852
1355.888816 100.041 -140.6481
1365.714145 100.153 -140.8685
1375.610673 100.258 -141.1424
1385.578915 100.354 -141.4648
1395.619391 100.441 -141.8301
1405.732624 100.519 -142.2314
1415.919142 100.586 -142.6615
1426.179476 100.643 -143.1123
1436.514160 100.691 -143.5761
1446.923734 100.732 -144.0462
1457.408740 100.765 -144.5175
1467.969724 100.794 -144.9876
1478.607238 100.818 -145.4574
1489.321836 100.840 -145.9309
1500.114076 100.860 -146.4141
1510.984521 100.877 -146.9130
1521.933737 100.889 -147.4318
1532.962297 100.896 -147.9709
1544.070773 100.895 -148.5264
1555.259747 100.883 -149.0898
1566.529800 100.859 -149.6478
1577.881521 100.822 -150.1833
1589.315501 100.771 -150.6766
1600.832336 100.707 -151.1066
1612.432627 100.629 -151.4525
1624.116978 100.542 -151.6956
1635.886000 100.446 -151.8201
1647.740304 100.346 -151.8147
1659.680509 100.245 -151.6725
1671.707238 100.147 -151.3918
1683.821118 100.056 -150.9762
1696.022780 99.977 -150.4351
1708.312860 99.914 -149.7841
1720.692000 99.868 -149.0450
1733.160843 99.844 -148.2457
1745.720041 99.841 -147.4194
1758.370248 99.859 -146.6016
1771.112124 99.897 -145.8273
1783.946332 99.950 -145.1262
1796.873543 100.013 -144.5201
1809.894429 100.083 -144.0210
1823.009670 100.154 -143.6312
1836.219950 100.221 -143.3449
1849.525956 100.282 -143.1490
1862.928384 100.334 -143.0260
1876.427931 100.375 -142.9555
1890.025301 100.405 -142.9157
1903.721204 100.424 -142.8854
1917.516352 100.433 -142.8446
1931.411466 100.433 -142.7757
1945.407270 100.426 -142.6651
1959.504493 100.414 -142.5037
1973.703870 100.398 -142.2884
1988.006142 100.381 -142.0224
2002.412054 100.363 -141.7144
2016.922357 100.344 -141.3766
2031.537808 100.325 -141.0226
2046.259169 100.304 -140.6645
2061.087206 100.280 -140.3121
2076.022694 100.253 -139.9724
2091.066410 100.222 -139.6503
2106.219139 100.186 -139.3494
2121.481671 100.146 -139.0719
2136.854802 100.102 -138.8193
2152.339333 100.054 -138.5915
2167.936071 100.003 -138.3871
2183.645829 99.950 -138.2036
2199.469427 99.895 -138.0381
2215.407689 99.841 -137.8879
2231.461446 99.788 -137.7518
2247.631536 99.738 -137.6301
2263.918800 99.691 -137.5245
2280.324089 99.647 -137.4391
2296.848258 99.608 -137.3790
2313.492167 99.572 -137.3513
2330.256685 99.539 -137.3634
2347.142685 99.508 -137.4230
2364.151049 99.476 -137.5356
2381.282662 99.442 -137.7039
2398.538418 99.402 -137.9261
2415.919216 99.354 -138.1955
2433.425962 99.294 -138.4994
2451.059570 99.220 -138.8193
2468.820958 99.130 -139.1299
2486.711052 99.022 -139.3990
2504.730786 98.895 -139.5866
2522.881098 98.750 -139.6460
2541.162934 98.590 -139.5257
2559.577248 98.420 -139.1731
2578.125000 98.248 -138.5416
2596.807157 98.084 -137.5994
2615.624692 97.941 -136.3396
2634.578586 97.833 -134.7877
2653.669829 97.772 -133.0042
2672.899414 97.764 -131.0771
2692.268345 97.814 -129.1080
2711.777632 97.919 -127.1933
2731.428290 98.072 -125.4099
2751.221345 98.265 -123.8073
2771.157829 98.487 -122.4075
2791.238781 98.729 -121.2108
2811.465248 98.984 -120.2036
2831.838284 99.244 -119.3653
2852.358952 99.505 -118.6749
2873.028321 99.764 -118.1139
2893.847468 100.017 -117.6686
2914.817480 100.261 -117.3293
2935.939449 100.495 -117.0885
2957.214476 100.715 -116.9383
2978.643672 100.921 -116.8688
3000.228152 101.111 -116.8674
3021.969041 101.286 -116.9192
3043.867475 101.445 -117.0089
3065.924593 101.592 -117.1236
3088.141547 101.728 -117.2549
3110.519493 101.856 -117.4009
3133.059600 101.980 -117.5664
3155.763041 102.102 -117.7620
3178.631001 102.223 -118.0015
3201.664672 102.343 -118.2996
3224.865254 102.463 -118.6696
3248.233957 102.582 -119.1228
3271.771999 102.699 -119.6682
3295.480608 102.812 -120.3122
3319.361019 102.918 -121.0594
3343.414477 103.016 -121.9116
3367.642236 103.102 -122.8672
3392.045560 103.172 -123.9202
3416.625721 103.223 -125.0582
3441.383999 103.251 -126.2606
3466.321686 103.251 -127.4970
3491.440082 103.220 -128.7262
3516.740496 103.157 -129.8960
3542.224247 103.061 -130.9448
3567.892664 102.935 -131.8049
3593.747085 102.785 -132.4094
3619.788858 102.620 -132.7018
3646.019340 102.454 -132.6496
3672.439900 102.300 -132.2563
3699.051913 102.175 -131.5660
3725.856768 102.090 -130.6581
3752.855862 102.052 -129.6289
3780.050603 102.063 -128.5707
3807.442408 102.121 -127.5564
3835.032705 102.221 -126.6351
3862.822933 102.357 -125.8371
3890.814540 102.523 -125.1824
3919.008986 102.715 -124.6873
3947.407741 102.925 -124.3642
3976.012284 103.147 -124.2194
4004.824108 103.376 -124.2516
4033.844715 103.607 -124.4530
4063.075616 103.836 -124.8132
4092.518337 104.059 -125.3225
4122.174412 104.274 -125.9736
4152.045387 104.478 -126.7604
4182.132820 104.668 -127.6747
4212.438278 104.840 -128.7040
4242.963342 104.993 -129.8303
4273.709604 105.125 -131.0324
4304.678665 105.236 -132.2891
4335.872141 105.325 -133.5826
4367.291658 105.395 -134.8988
4398.938854 105.444 -136.2262
4430.815378 105.473 -137.5535
4462.922893 105.482 -138.8686
4495.263072 105.471 -140.1583
4527.837601 105.439 -141.4093
4560.648179 105.390 -142.6101
4593.696515 105.323 -143.7520
4626.984334 105.241 -144.8295
4660.513370 105.146 -145.8398
4694.285371 105.039 -146.7825
4728.302098 104.922 -147.6587
4762.565324 104.797 -148.4697
4797.076835 104.665 -149.2168
4831.838432 104.529 -149.9005
4866.851925 104.389 -150.5208
4902.119140 104.249 -151.0778
4937.641916 104.109 -151.5720
4973.422105 103.974 -152.0053
5009.461572 103.844 -152.3811
5045.762195 103.722 -152.7048
5082.325868 103.611 -152.9846
5119.154496 103.514 -153.2320
5156.250000 103.431 -153.4610
5193.614313 103.363 -153.6869
5231.249383 103.311 -153.9254
5269.157173 103.275 -154.1903
5307.339658 103.253 -154.4932
5345.798829 103.245 -154.8443
5384.536691 103.251 -155.2533
5423.555263 103.270 -155.7307
5462.856580 103.302 -156.2879
5502.442691 103.345 -156.9380
5542.315659 103.401 -157.6959
5582.477563 103.467 -158.5780
5622.930497 103.544 -159.6029
5663.676569 103.629 -160.7909
5704.717904 103.719 -162.1615
5746.056642 103.810 -163.7302
5787.694937 103.896 -165.5061
5829.634960 103.973 -167.4902
5871.878898 104.034 -169.6762
5914.428953 104.075 -172.0516
5957.287343 104.090 -174.5993
6000.456303 104.075 -177.2979
6043.938083 104.024 179.8775
6087.734950 103.935 176.9551
6131.849187 103.802 173.9660
6176.283094 103.623 170.9445
6221.038987 103.394 167.9280
6266.119200 103.113 164.9576
6311.526083 102.777 162.0783
6357.262002 102.384 159.3395
6403.329344 101.934 156.7963
6449.730508 101.426 154.5097
6496.467914 100.860 152.5478
6543.543998 100.238 150.9859
6590.961215 99.563 149.9071
6638.722037 98.839 149.4007
6686.828954 98.072 149.5615
6735.284473 97.272 150.4900
6784.091120 96.448 152.2976
6833.251441 95.613 155.1118
6882.767998 94.786 159.0739
6932.643372 93.988 164.3203
6982.880164 93.247 170.9341
7033.480992 92.596 178.8649
7084.448495 92.071 -172.1618
7135.785329 91.703 -162.6703
7187.494171 91.513 -153.3200
7239.577717 91.504 -144.6933
7292.038681 91.662 -137.1405
7344.879799 91.959 -130.7685
7398.103826 92.362 -125.5240
7451.713536 92.839 -121.2835
7505.711724 93.362 -117.9104
7560.101205 93.907 -115.2815
7614.884815 94.459 -113.2929
7670.065409 95.003 -111.8587
7725.645865 95.529 -110.9057
7781.629080 96.031 -110.3675
7838.017972 96.501 -110.1800
7894.815481 96.936 -110.2769
7952.024569 97.334 -110.5877
8009.648217 97.695 -111.0354
8067.689429 98.022 -111.5361
8126.151233 98.321 -112.0011
8185.036674 98.602 -112.3430
8244.348824 98.881 -112.4886
8304.090774 99.174 -112.3971
8364.265639 99.499 -112.0816
8424.876556 99.869 -111.6230
8485.926684 100.291 -111.1645
8547.419207 100.760 -110.8842
8609.357330 101.264 -110.9537
8671.744282 101.785 -111.5015
8734.583316 102.304 -112.5947
8797.877707 102.802 -114.2400
8861.630756 103.266 -116.3969
8925.845785 103.684 -118.9943
8990.526143 104.051 -121.9447
9055.675202 104.364 -125.1572
9121.296357 104.624 -128.5464
9187.393031 104.834 -132.0382
9253.968668 104.998 -135.5719
9321.026740 105.122 -139.1011
9388.570742 105.209 -142.5922
9456.604196 105.264 -146.0224
9525.130648 105.290 -149.3768
9594.153671 105.287 -152.6449
9663.676863 105.257 -155.8174
9733.703850 105.200 -158.8832
9804.238280 105.118 -161.8291
9875.283832 105.013 -164.6421
9946.844210 104.892 -167.3153
10018.923143 104.764 -169.8562
10091.524390 104.641 -172.2897
10164.651736 104.533 -174.6575
10238.308993 104.452 -177.0124
10312.500000 104.404 -179.4117
10387.228626 104.393 178.0883
10462.498767 104.418 175.4370
10538.314345 104.474 172.5925
10614.679315 104.555 169.5232
10691.597657 104.650 166.2090
10769.073381 104.749 162.6407
10847.110526 104.842 158.8188
10925.713161 104.917 154.7524
11004.885382 104.967 150.4571
11084.631318 104.984 145.9528
11164.955126 104.960 141.2615
11245.860993 104.891 136.4086
11327.353138 104.770 131.4220
11409.435808 104.594 126.3329
11492.113283 104.361 121.1744
11575.389873 104.068 115.9802
11659.269920 103.716 110.7816
11743.757796 103.307 105.6074
11828.857906 102.842 100.4818
11914.574686 102.325 95.4235
12000.912606 101.759 90.4460
12087.876166 101.148 85.5582
12175.469900 100.494 80.7670
12263.698373 99.801 76.0797
12352.566187 99.071 71.5065
12442.077974 98.304 67.0616
12532.238400 97.503 62.7655
12623.052165 96.668 58.6461
12714.524005 95.801 54.7439
12806.658687 94.905 51.1209
12899.461015 93.982 47.8772
12992.935827 93.037 45.1822
13087.087996 92.078 43.3364
13181.922430 91.115 42.9060
13277.444074 90.164 45.0303
13373.657907 89.246 52.1324
13470.568945 88.386 68.7884
13568.182241 87.615 96.4246
13666.502883 86.966 120.7250
13765.535996 86.468 133.4839
13865.286744 86.144 139.0187
13965.760328 86.004 141.0269
14066.961984 86.047 141.2662
14168.896989 86.262 140.5413
14271.570658 86.625 139.2223
14374.988342 87.110 137.4686
14479.155433 87.687 135.3324
14584.077362 88.331 132.8129
14689.759598 89.016 129.8867
14796.207652 89.721 126.5251
14903.427072 90.431 122.7020
15011.423448 91.131 118.3981
15120.202410 91.811 113.6023
15229.769630 92.462 108.3107
15340.130819 93.075 102.5269
15451.291730 93.645 96.2604
15563.258160 94.165 89.5271
15676.035944 94.630 82.3478
15789.630962 95.035 74.7487
15904.049137 95.378 66.7603
16019.296433 95.654 58.4174
16135.378859 95.863 49.7579
16252.302465 96.004 40.8217
16370.073348 96.078 31.6485
16488.697648 96.086 22.2761
16608.181548 96.034 12.7371
16728.531278 95.924 3.0587
16849.753112 95.760 -6.7380
16971.853368 95.546 -16.6347
17094.838414 95.281 -26.6130
17218.714660 94.967 -36.6503
17343.488565 94.600 -46.7164
17469.166632 94.179 -56.7733
17595.755415 93.702 -66.7767
17723.261512 93.171 -76.6819
17851.691571 92.589 -86.4540
17981.052287 91.965 -96.0820
18111.350404 91.315 -105.5908
18242.592715 90.662 -115.0511
18374.786062 90.033 -124.5773
18507.937336 89.460 -134.3215
18642.053479 88.972 -144.4655
18777.141484 88.590 -155.2169
18913.208391 88.320 -166.8056
19050.261296 88.155 -179.4700
19188.307342 88.075 166.6062
19327.353727 88.054 151.4667
19467.407699 88.067 135.6786
19608.476560 88.094 120.5194
19750.567664 88.121 107.6653
19893.688419 88.141 98.5078
20037.846286 88.151 93.7993
