* Measurement data measured by REW V5.31.3
* Source: EXCL: Headset (USB-C to 3.5mm Headphone Jack Adapter), MICROPHONE (Master Volume), 0, volume: 0.250
* Format: 256k Log Swept Sine, 1 sweep at -12.0 dBFS with no timing reference
* Dated: Feb 9, 2025 5:04:50 PM
* REW Settings:
*  C-weighting compensation: Off
*  Target level: 75.0 dB
* Note: ; 
* Measurement: Ouroboros (Golem Mod) R1
* Smoothing: 1/6 octave
* Frequency Step: 96 ppo
* Start Frequency: 20.0 Hz
*
* Freq(Hz) SPL(dB) Phase(degrees)
20.141602 103.708 -106.5805
20.287556 103.686 -106.7843
20.434568 103.656 -107.0570
20.582645 103.615 -107.3894
20.731796 103.563 -107.7730
20.882027 103.499 -108.2003
21.033346 103.424 -108.6664
21.185763 103.337 -109.1685
21.339284 103.241 -109.7065
21.493917 103.136 -110.2816
21.649671 103.024 -110.8958
21.806553 102.907 -111.5507
21.964572 102.788 -112.2467
22.123737 102.667 -112.9820
22.284054 102.546 -113.7522
22.445534 102.427 -114.5505
22.608183 102.312 -115.3676
22.772012 102.202 -116.1929
22.937027 102.098 -117.0150
23.103238 102.001 -117.8232
23.270654 101.915 -118.6082
23.439282 101.839 -119.3634
23.609133 101.776 -120.0854
23.780215 101.726 -120.7740
23.952536 101.691 -121.4324
24.126106 101.670 -122.0661
24.300934 101.664 -122.6824
24.477028 101.669 -123.2890
24.654399 101.685 -123.8929
24.833055 101.709 -124.4997
25.013005 101.738 -125.1126
25.194260 101.769 -125.7326
25.376828 101.799 -126.3585
25.560719 101.828 -126.9872
25.745942 101.852 -127.6146
25.932508 101.871 -128.2362
26.120426 101.884 -128.8479
26.309705 101.892 -129.4462
26.500356 101.894 -130.0292
26.692388 101.890 -130.5957
26.885812 101.881 -131.1458
27.080638 101.867 -131.6804
27.276876 101.848 -132.2007
27.474535 101.825 -132.7082
27.673627 101.800 -133.2047
27.874161 101.772 -133.6919
28.076149 101.745 -134.1723
28.279600 101.719 -134.6483
28.484526 101.699 -135.1234
28.690937 101.686 -135.6011
28.898843 101.683 -136.0851
29.108256 101.693 -136.5785
29.319186 101.716 -137.0836
29.531645 101.754 -137.6010
29.745644 101.807 -138.1296
29.961193 101.872 -138.6664
30.178304 101.949 -139.2073
30.396989 102.033 -139.7472
30.617258 102.121 -140.2813
30.839123 102.208 -140.8055
31.062596 102.291 -141.3172
31.287688 102.365 -141.8155
31.514412 102.425 -142.3007
31.742778 102.466 -142.7738
31.972800 102.485 -143.2358
32.204488 102.478 -143.6871
32.437855 102.443 -144.1268
32.672913 102.379 -144.5530
32.909674 102.286 -144.9630
33.148151 102.164 -145.3543
33.388356 102.016 -145.7255
33.630302 101.845 -146.0767
33.874001 101.655 -146.4102
34.119466 101.450 -146.7305
34.366710 101.235 -147.0427
34.615745 101.014 -147.3524
34.866585 100.791 -147.6639
35.119243 100.571 -147.9794
35.373731 100.357 -148.2983
35.630064 100.152 -148.6178
35.888254 99.958 -148.9333
36.148315 99.780 -149.2396
36.410261 99.618 -149.5318
36.674104 99.477 -149.8070
36.939860 99.358 -150.0644
37.207542 99.263 -150.3053
37.477163 99.192 -150.5329
37.748738 99.147 -150.7506
38.022281 99.125 -150.9615
38.297806 99.125 -151.1671
38.575327 99.147 -151.3672
38.854860 99.189 -151.5597
39.136419 99.249 -151.7419
39.420017 99.327 -151.9113
39.705671 99.423 -152.0669
39.993395 99.536 -152.2101
40.283203 99.668 -152.3444
40.575112 99.817 -152.4757
40.869136 99.982 -152.6105
41.165290 100.161 -152.7552
41.463591 100.354 -152.9146
41.764053 100.556 -153.0910
42.066693 100.766 -153.2844
42.371525 100.980 -153.4919
42.678567 101.196 -153.7089
42.987834 101.411 -153.9294
43.299341 101.624 -154.1472
43.613106 101.832 -154.3564
43.929145 102.033 -154.5527
44.247473 102.226 -154.7333
44.568109 102.408 -154.8981
44.891068 102.579 -155.0490
45.216367 102.735 -155.1896
45.544023 102.875 -155.3249
45.874054 102.998 -155.4599
46.206476 103.101 -155.5992
46.541307 103.185 -155.7467
46.878565 103.247 -155.9052
47.218266 103.291 -156.0771
47.560429 103.315 -156.2640
47.905072 103.322 -156.4666
48.252212 103.313 -156.6848
48.601867 103.291 -156.9169
48.954056 103.258 -157.1597
49.308798 103.216 -157.4087
49.666109 103.168 -157.6591
50.026010 103.114 -157.9065
50.388520 103.057 -158.1475
50.753656 102.999 -158.3803
51.121437 102.940 -158.6043
51.491884 102.882 -158.8194
51.865016 102.826 -159.0256
52.240851 102.772 -159.2231
52.619410 102.720 -159.4120
53.000712 102.672 -159.5923
53.384777 102.627 -159.7644
53.771625 102.586 -159.9286
54.161276 102.547 -160.0851
54.553751 102.511 -160.2345
54.949070 102.477 -160.3771
55.347254 102.445 -160.5137
55.748323 102.412 -160.6454
56.152298 102.380 -160.7737
56.559201 102.346 -160.8995
56.969052 102.312 -161.0240
57.381873 102.275 -161.1474
57.797686 102.237 -161.2692
58.216512 102.196 -161.3880
58.638373 102.155 -161.5014
59.063291 102.112 -161.6068
59.491288 102.068 -161.7011
59.922386 102.025 -161.7825
60.356608 101.981 -161.8501
60.793977 101.938 -161.9051
61.234515 101.896 -161.9496
61.678246 101.855 -161.9872
62.125192 101.816 -162.0215
62.575377 101.780 -162.0560
63.028824 101.746 -162.0939
63.485557 101.715 -162.1371
63.945599 101.689 -162.1874
64.408975 101.666 -162.2457
64.875709 101.648 -162.3131
65.345825 101.634 -162.3909
65.819348 101.625 -162.4804
66.296302 101.621 -162.5828
66.776713 101.622 -162.6988
67.260604 101.628 -162.8287
67.748002 101.640 -162.9727
68.238932 101.655 -163.1308
68.733420 101.676 -163.3029
69.231490 101.701 -163.4887
69.733170 101.730 -163.6878
70.238485 101.762 -163.8996
70.747463 101.798 -164.1234
71.260128 101.837 -164.3591
71.776508 101.877 -164.6069
72.296630 101.920 -164.8675
72.820521 101.964 -165.1420
73.348209 102.008 -165.4319
73.879720 102.053 -165.7385
74.415083 102.098 -166.0632
74.954326 102.143 -166.4069
75.497475 102.187 -166.7702
76.044561 102.230 -167.1530
76.595612 102.271 -167.5547
77.150655 102.310 -167.9744
77.709720 102.347 -168.4108
78.272837 102.380 -168.8627
78.840034 102.410 -169.3289
79.411342 102.435 -169.8086
79.986789 102.455 -170.3011
80.566406 102.470 -170.8056
81.150224 102.480 -171.3213
81.738272 102.486 -171.8473
82.330581 102.487 -172.3825
82.927182 102.485 -172.9260
83.528107 102.480 -173.4770
84.133386 102.474 -174.0349
84.743051 102.470 -174.5998
85.357134 102.470 -175.1716
85.975667 102.476 -175.7505
86.598682 102.492 -176.3365
87.226212 102.522 -176.9293
87.858289 102.569 -177.5280
88.494946 102.634 -178.1314
89.136217 102.721 -178.7380
89.782135 102.829 -179.3463
90.432733 102.957 -179.9548
91.088046 103.105 179.4379
91.748108 103.267 178.8329
92.412952 103.440 178.2309
93.082615 103.619 177.6324
93.757130 103.798 177.0377
94.436533 103.973 176.4468
95.120859 104.137 175.8601
95.810144 104.288 175.2776
96.504423 104.422 174.6996
97.203734 104.537 174.1264
97.908112 104.633 173.5587
98.617595 104.710 172.9971
99.332219 104.768 172.4421
100.052021 104.810 171.8944
100.777039 104.837 171.3546
101.507311 104.852 170.8232
102.242875 104.856 170.3004
102.983769 104.851 169.7864
103.730032 104.839 169.2813
104.481702 104.821 168.7849
105.238820 104.796 168.2972
106.001424 104.765 167.8179
106.769554 104.725 167.3474
107.543250 104.676 166.8860
108.322553 104.615 166.4345
109.107503 104.542 165.9938
109.898141 104.455 165.5646
110.694508 104.353 165.1477
111.496646 104.235 164.7435
112.304596 104.103 164.3525
113.118402 103.957 163.9749
113.938104 103.798 163.6105
114.763747 103.629 163.2594
115.595372 103.452 162.9215
116.433024 103.269 162.5967
117.276746 103.083 162.2852
118.126581 102.894 161.9874
118.982575 102.705 161.7043
119.844772 102.517 161.4369
120.713217 102.331 161.1866
121.587954 102.146 160.9544
122.469031 101.962 160.7415
123.356492 101.779 160.5487
124.250384 101.595 160.3770
125.150753 101.409 160.2271
126.057647 101.220 160.0994
126.971113 101.027 159.9942
127.891198 100.828 159.9112
128.817950 100.622 159.8502
129.751418 100.410 159.8107
130.691651 100.191 159.7924
131.638696 99.967 159.7948
132.592604 99.737 159.8177
133.553425 99.505 159.8611
134.521208 99.272 159.9251
135.496004 99.042 160.0102
136.477864 98.817 160.1167
137.466839 98.602 160.2453
138.462981 98.400 160.3966
139.466340 98.213 160.5714
140.476971 98.044 160.7704
141.494925 97.895 160.9944
142.520256 97.765 161.2443
143.553016 97.655 161.5204
144.593260 97.561 161.8232
145.641043 97.482 162.1528
146.696418 97.412 162.5093
147.759441 97.350 162.8924
148.830166 97.290 163.3017
149.908651 97.231 163.7366
150.994951 97.170 164.1962
152.089123 97.106 164.6794
153.191223 97.039 165.1850
154.301310 96.969 165.7117
155.419441 96.897 166.2578
156.545674 96.825 166.8217
157.680069 96.756 167.4014
158.822683 96.690 167.9950
159.973578 96.630 168.6007
161.132813 96.577 169.2167
162.300447 96.532 169.8411
163.476543 96.495 170.4719
164.661162 96.467 171.1069
165.854364 96.448 171.7436
167.056213 96.439 172.3793
168.266772 96.439 173.0114
169.486102 96.449 173.6371
170.714268 96.470 174.2534
171.951334 96.500 174.8580
173.197364 96.540 175.4483
174.452424 96.589 176.0222
175.716578 96.646 176.5780
176.989893 96.712 177.1141
178.272434 96.783 177.6294
179.564270 96.860 178.1230
180.865467 96.940 178.5944
182.176092 97.022 179.0429
183.496216 97.105 179.4682
184.825905 97.187 179.8701
186.165229 97.269 -179.7522
187.514259 97.350 -179.3988
188.873065 97.429 -179.0707
190.241717 97.507 -178.7684
191.620287 97.584 -178.4924
193.008847 97.662 -178.2433
194.407468 97.739 -178.0211
195.816225 97.816 -177.8258
197.235190 97.893 -177.6567
198.664438 97.969 -177.5127
200.104042 98.045 -177.3924
201.554078 98.119 -177.2941
203.014622 98.191 -177.2165
204.485750 98.259 -177.1582
205.967538 98.324 -177.1181
207.460064 98.385 -177.0955
208.963405 98.441 -177.0896
210.477640 98.493 -177.0995
212.002848 98.540 -177.1244
213.539108 98.583 -177.1636
215.086500 98.622 -177.2167
216.645105 98.657 -177.2833
218.215005 98.689 -177.3634
219.796281 98.717 -177.4570
221.389015 98.742 -177.5639
222.993292 98.762 -177.6837
224.609193 98.777 -177.8155
226.236804 98.787 -177.9584
227.876209 98.791 -178.1111
229.527494 98.789 -178.2723
231.190745 98.779 -178.4409
232.866048 98.762 -178.6154
234.553491 98.739 -178.7949
236.253163 98.709 -178.9783
237.965150 98.674 -179.1647
239.689544 98.634 -179.3533
241.426433 98.591 -179.5432
243.175909 98.544 -179.7337
244.938062 98.496 -179.9241
246.712984 98.447 179.8865
248.500768 98.398 179.6990
250.301507 98.350 179.5142
252.115295 98.303 179.3329
253.942226 98.258 179.1562
255.782396 98.217 178.9850
257.635901 98.179 178.8199
259.502837 98.145 178.6617
261.383301 98.116 178.5111
263.277392 98.092 178.3687
265.185209 98.074 178.2349
267.106850 98.061 178.1100
269.042417 98.053 177.9945
270.992009 98.051 177.8885
272.955729 98.053 177.7926
274.933678 98.060 177.7067
276.925961 98.071 177.6311
278.932681 98.085 177.5656
280.953942 98.103 177.5098
282.989850 98.124 177.4632
285.040511 98.148 177.4249
287.106032 98.176 177.3937
289.186521 98.209 177.3681
291.282086 98.247 177.3466
293.392836 98.292 177.3274
295.518881 98.344 177.3088
297.660333 98.403 177.2891
299.817302 98.468 177.2665
301.989902 98.539 177.2394
304.178245 98.615 177.2065
306.382446 98.694 177.1664
308.602620 98.773 177.1182
310.838882 98.851 177.0612
313.091348 98.925 176.9951
315.360137 98.995 176.9197
317.645367 99.058 176.8351
319.947156 99.113 176.7415
322.265625 99.159 176.6395
324.600895 99.196 176.5297
326.953086 99.222 176.4125
329.322323 99.237 176.2890
331.708729 99.241 176.1598
334.112427 99.233 176.0259
336.533543 99.214 175.8881
338.972204 99.183 175.7473
341.428536 99.142 175.6045
343.902668 99.092 175.4604
346.394729 99.033 175.3160
348.904848 98.968 175.1718
351.433156 98.898 175.0284
353.979786 98.824 174.8862
356.544869 98.751 174.7457
359.128540 98.680 174.6073
361.730934 98.614 174.4714
364.352185 98.556 174.3389
366.992431 98.509 174.2103
369.651810 98.475 174.0865
372.330459 98.456 173.9682
375.028519 98.454 173.8559
377.746130 98.467 173.7502
380.483434 98.497 173.6516
383.240574 98.541 173.5605
386.017693 98.598 173.4773
388.814937 98.665 173.4024
391.632450 98.740 173.3365
394.470380 98.820 173.2800
397.328875 98.902 173.2338
400.208084 98.985 173.1985
403.108157 99.067 173.1750
406.029245 99.147 173.1640
408.971500 99.224 173.1664
411.935076 99.298 173.1827
414.920127 99.370 173.2134
417.926810 99.440 173.2586
420.955280 99.509 173.3184
424.005695 99.578 173.3924
427.078215 99.648 173.4802
430.173000 99.720 173.5810
433.290211 99.794 173.6939
436.430010 99.870 173.8179
439.592562 99.948 173.9516
442.778031 100.026 174.0937
445.986583 100.104 174.2426
449.218386 100.180 174.3965
452.473607 100.252 174.5538
455.752418 100.319 174.7122
459.054987 100.380 174.8698
462.381489 100.433 175.0242
465.732096 100.479 175.1732
469.106983 100.516 175.3142
472.506325 100.545 175.4452
475.930301 100.567 175.5637
479.379088 100.582 175.6677
482.852867 100.592 175.7550
486.351817 100.597 175.8241
489.876123 100.597 175.8734
493.425968 100.594 175.9016
497.001536 100.589 175.9081
500.603014 100.580 175.8923
504.230589 100.568 175.8542
507.884452 100.553 175.7942
511.564792 100.535 175.7128
515.271802 100.512 175.6111
519.005673 100.486 175.4905
522.766602 100.456 175.3529
526.554785 100.424 175.2007
530.370418 100.391 175.0365
534.213700 100.359 174.8634
538.084833 100.329 174.6843
541.984018 100.304 174.5020
545.911457 100.284 174.3190
549.867357 100.272 174.1367
553.851922 100.268 173.9561
557.865362 100.270 173.7770
561.907884 100.279 173.5990
565.979700 100.292 173.4210
570.081022 100.308 173.2421
574.212064 100.323 173.0620
578.373042 100.337 172.8803
582.564171 100.347 172.6978
586.785671 100.351 172.5154
591.037762 100.348 172.3346
595.320665 100.336 172.1567
599.634604 100.316 171.9833
603.979804 100.288 171.8157
608.356491 100.250 171.6551
612.764893 100.205 171.5023
617.205240 100.152 171.3580
621.677763 100.094 171.2225
626.182696 100.032 171.0961
630.720274 99.967 170.9789
635.290733 99.901 170.8709
639.894312 99.838 170.7719
644.531250 99.777 170.6818
649.201789 99.722 170.6003
653.906173 99.673 170.5269
658.644647 99.631 170.4613
663.417457 99.596 170.4029
668.224854 99.568 170.3512
673.067086 99.546 170.3059
677.944408 99.528 170.2665
682.857073 99.513 170.2325
687.805336 99.499 170.2034
692.789457 99.484 170.1788
697.809695 99.468 170.1583
702.866312 99.450 170.1416
707.959571 99.427 170.1284
713.089738 99.400 170.1188
718.257080 99.369 170.1129
723.461867 99.333 170.1108
728.704370 99.293 170.1131
733.984862 99.249 170.1202
739.303619 99.202 170.1322
744.660918 99.152 170.1495
750.057038 99.101 170.1723
755.492260 99.048 170.2004
760.966869 98.994 170.2338
766.481148 98.940 170.2723
772.035387 98.885 170.3158
777.629873 98.828 170.3642
783.264900 98.769 170.4177
788.940760 98.706 170.4763
794.657750 98.641 170.5405
800.416168 98.570 170.6107
806.216313 98.494 170.6871
812.058489 98.413 170.7703
817.943000 98.325 170.8605
823.870152 98.231 170.9579
829.840255 98.132 171.0626
835.853619 98.028 171.1745
841.910559 97.920 171.2930
848.011390 97.810 171.4177
854.156430 97.698 171.5474
860.346000 97.587 171.6809
866.580422 97.476 171.8167
872.860020 97.369 171.9525
879.185124 97.266 172.0863
885.556062 97.168 172.2154
891.973166 97.076 172.3368
898.436771 96.993 172.4476
904.947215 96.917 172.5444
911.504835 96.851 172.6245
918.109975 96.794 172.6849
924.762978 96.746 172.7242
931.464192 96.707 172.7417
938.213966 96.675 172.7387
945.012651 96.650 172.7186
951.860602 96.630 172.6869
958.758176 96.615 172.6508
965.705733 96.603 172.6187
972.703635 96.592 172.5998
979.752246 96.584 172.6025
986.851935 96.578 172.6345
994.003071 96.574 172.7021
1001.206027 96.572 172.8103
1008.461179 96.575 172.9631
1015.768904 96.583 173.1636
1023.129584 96.599 173.4144
1030.543603 96.624 173.7178
1038.011347 96.660 174.0754
1045.533205 96.710 174.4877
1053.109569 96.777 174.9535
1060.740836 96.863 175.4684
1068.427401 96.970 176.0245
1076.169666 97.097 176.6079
1083.968035 97.247 177.1990
1091.822915 97.417 177.7721
1099.734713 97.604 178.2964
1107.703844 97.803 178.7389
1115.730723 98.010 179.0687
1123.815768 98.216 179.2614
1131.959400 98.416 179.3039
1140.162045 98.602 179.1969
1148.424129 98.770 178.9552
1156.746083 98.916 178.6045
1165.128342 99.038 178.1768
1173.571343 99.138 177.7057
1182.075524 99.217 177.2223
1190.641331 99.278 176.7523
1199.269209 99.325 176.3155
1207.959608 99.361 175.9254
1216.712981 99.390 175.5899
1225.529785 99.414 175.3124
1234.410479 99.435 175.0927
1243.355526 99.454 174.9282
1252.365393 99.474 174.8148
1261.440549 99.493 174.7477
1270.581467 99.512 174.7216
1279.788624 99.531 174.7316
1289.062500 99.549 174.7730
1298.403578 99.566 174.8420
1307.812346 99.583 174.9353
1317.289293 99.599 175.0501
1326.834914 99.615 175.1842
1336.449707 99.630 175.3356
1346.134173 99.646 175.5023
1355.888816 99.663 175.6824
1365.714145 99.681 175.8736
1375.610673 99.700 176.0734
1385.578915 99.721 176.2791
1395.619391 99.743 176.4881
1405.732624 99.766 176.6975
1415.919142 99.790 176.9046
1426.179476 99.817 177.1068
1436.514160 99.845 177.3015
1446.923734 99.876 177.4862
1457.408740 99.910 177.6586
1467.969724 99.947 177.8168
1478.607238 99.988 177.9591
1489.321836 100.034 178.0842
1500.114076 100.083 178.1910
1510.984521 100.137 178.2793
1521.933737 100.195 178.3488
1532.962297 100.257 178.4000
1544.070773 100.321 178.4334
1555.259747 100.388 178.4502
1566.529800 100.456 178.4514
1577.881521 100.525 178.4387
1589.315501 100.594 178.4135
1600.832336 100.662 178.3773
1612.432627 100.729 178.3313
1624.116978 100.794 178.2767
1635.886000 100.858 178.2140
1647.740304 100.921 178.1436
1659.680509 100.982 178.0655
1671.707238 101.042 177.9795
1683.821118 101.102 177.8851
1696.022780 101.161 177.7819
1708.312860 101.220 177.6694
1720.692000 101.279 177.5471
1733.160843 101.339 177.4146
1745.720041 101.398 177.2715
1758.370248 101.457 177.1176
1771.112124 101.515 176.9528
1783.946332 101.572 176.7773
1796.873543 101.627 176.5911
1809.894429 101.679 176.3946
1823.009670 101.727 176.1882
1836.219950 101.772 175.9725
1849.525956 101.813 175.7483
1862.928384 101.849 175.5162
1876.427931 101.881 175.2772
1890.025301 101.909 175.0322
1903.721204 101.933 174.7821
1917.516352 101.952 174.5280
1931.411466 101.968 174.2705
1945.407270 101.979 174.0107
1959.504493 101.986 173.7495
1973.703870 101.988 173.4879
1988.006142 101.983 173.2268
2002.412054 101.972 172.9677
2016.922357 101.953 172.7117
2031.537808 101.925 172.4603
2046.259169 101.887 172.2149
2061.087206 101.840 171.9770
2076.022694 101.782 171.7479
2091.066410 101.713 171.5291
2106.219139 101.635 171.3217
2121.481671 101.546 171.1274
2136.854802 101.449 170.9475
2152.339333 101.345 170.7832
2167.936071 101.234 170.6357
2183.645829 101.119 170.5058
2199.469427 101.001 170.3940
2215.407689 100.881 170.3004
2231.461446 100.761 170.2247
2247.631536 100.643 170.1660
2263.918800 100.527 170.1234
2280.324089 100.413 170.0957
2296.848258 100.302 170.0819
2313.492167 100.194 170.0811
2330.256685 100.088 170.0930
2347.142685 99.985 170.1176
2364.151049 99.884 170.1553
2381.282662 99.784 170.2072
2398.538418 99.685 170.2746
2415.919216 99.587 170.3593
2433.425962 99.490 170.4630
2451.059570 99.393 170.5879
2468.820958 99.298 170.7360
2486.711052 99.204 170.9091
2504.730786 99.112 171.1089
2522.881098 99.024 171.3368
2541.162934 98.939 171.5938
2559.577248 98.860 171.8807
2578.125000 98.788 172.1976
2596.807157 98.723 172.5444
2615.624692 98.669 172.9205
2634.578586 98.625 173.3246
2653.669829 98.595 173.7551
2672.899414 98.578 174.2093
2692.268345 98.576 174.6840
2711.777632 98.590 175.1754
2731.428290 98.619 175.6785
2751.221345 98.663 176.1885
2771.157829 98.720 176.7003
2791.238781 98.788 177.2089
2811.465248 98.866 177.7103
2831.838284 98.950 178.2010
2852.358952 99.039 178.6787
2873.028321 99.128 179.1420
2893.847468 99.217 179.5900
2914.817480 99.303 -179.9777
2935.939449 99.384 -179.5612
2957.214476 99.458 -179.1606
2978.643672 99.524 -178.7756
3000.228152 99.582 -178.4060
3021.969041 99.631 -178.0516
3043.867475 99.670 -177.7115
3065.924593 99.700 -177.3849
3088.141547 99.720 -177.0706
3110.519493 99.733 -176.7674
3133.059600 99.737 -176.4737
3155.763041 99.733 -176.1880
3178.631001 99.723 -175.9088
3201.664672 99.708 -175.6344
3224.865254 99.686 -175.3631
3248.233957 99.660 -175.0929
3271.771999 99.629 -174.8215
3295.480608 99.595 -174.5460
3319.361019 99.556 -174.2629
3343.414477 99.514 -173.9681
3367.642236 99.469 -173.6570
3392.045560 99.421 -173.3247
3416.625721 99.371 -172.9658
3441.383999 99.320 -172.5752
3466.321686 99.268 -172.1476
3491.440082 99.218 -171.6784
3516.740496 99.169 -171.1633
3542.224247 99.125 -170.5989
3567.892664 99.086 -169.9829
3593.747085 99.055 -169.3142
3619.788858 99.033 -168.5929
3646.019340 99.023 -167.8203
3672.439900 99.025 -166.9992
3699.051913 99.042 -166.1336
3725.856768 99.075 -165.2289
3752.855862 99.125 -164.2920
3780.050603 99.193 -163.3313
3807.442408 99.279 -162.3568
3835.032705 99.385 -161.3801
3862.822933 99.508 -160.4142
3890.814540 99.650 -159.4733
3919.008986 99.808 -158.5724
3947.407741 99.981 -157.7261
3976.012284 100.168 -156.9477
4004.824108 100.365 -156.2489
4033.844715 100.570 -155.6383
4063.075616 100.781 -155.1220
4092.518337 100.996 -154.7032
4122.174412 101.212 -154.3828
4152.045387 101.427 -154.1598
4182.132820 101.640 -154.0314
4212.438278 101.849 -153.9941
4242.963342 102.053 -154.0439
4273.709604 102.251 -154.1770
4304.678665 102.442 -154.3896
4335.872141 102.626 -154.6789
4367.291658 102.800 -155.0426
4398.938854 102.964 -155.4784
4430.815378 103.117 -155.9840
4462.922893 103.258 -156.5562
4495.263072 103.383 -157.1908
4527.837601 103.494 -157.8820
4560.648179 103.587 -158.6230
4593.696515 103.663 -159.4052
4626.984334 103.720 -160.2192
4660.513370 103.758 -161.0548
4694.285371 103.777 -161.9013
4728.302098 103.778 -162.7479
4762.565324 103.762 -163.5842
4797.076835 103.729 -164.4003
4831.838432 103.682 -165.1874
4866.851925 103.621 -165.9376
4902.119140 103.550 -166.6446
4937.641916 103.471 -167.3038
4973.422105 103.384 -167.9116
5009.461572 103.292 -168.4662
5045.762195 103.198 -168.9667
5082.325868 103.102 -169.4130
5119.154496 103.006 -169.8059
5156.250000 102.912 -170.1464
5193.614313 102.819 -170.4357
5231.249383 102.729 -170.6752
5269.157173 102.643 -170.8665
5307.339658 102.561 -171.0116
5345.798829 102.484 -171.1126
5384.536691 102.411 -171.1726
5423.555263 102.343 -171.1950
5462.856580 102.282 -171.1842
5502.442691 102.227 -171.1451
5542.315659 102.179 -171.0837
5582.477563 102.139 -171.0066
5622.930497 102.108 -170.9209
5663.676569 102.087 -170.8342
5704.717904 102.077 -170.7544
5746.056642 102.079 -170.6895
5787.694937 102.094 -170.6476
5829.634960 102.122 -170.6367
5871.878898 102.164 -170.6649
5914.428953 102.218 -170.7398
5957.287343 102.285 -170.8692
6000.456303 102.363 -171.0602
6043.938083 102.449 -171.3193
6087.734950 102.540 -171.6525
6131.849187 102.635 -172.0646
6176.283094 102.729 -172.5590
6221.038987 102.818 -173.1376
6266.119200 102.901 -173.8006
6311.526083 102.972 -174.5464
6357.262002 103.029 -175.3717
6403.329344 103.070 -176.2714
6449.730508 103.093 -177.2392
6496.467914 103.097 -178.2674
6543.543998 103.080 -179.3476
6590.961215 103.042 179.5289
6638.722037 102.983 178.3712
6686.828954 102.905 177.1880
6735.284473 102.807 175.9875
6784.091120 102.693 174.7772
6833.251441 102.562 173.5638
6882.767998 102.417 172.3532
6932.643372 102.260 171.1505
6982.880164 102.092 169.9598
7033.480992 101.915 168.7849
7084.448495 101.732 167.6284
7135.785329 101.544 166.4919
7187.494171 101.353 165.3753
7239.577717 101.161 164.2765
7292.038681 100.969 163.1909
7344.879799 100.779 162.1109
7398.103826 100.593 161.0255
7451.713536 100.411 159.9203
7505.711724 100.234 158.7764
7560.101205 100.063 157.5713
7614.884815 99.898 156.2780
7670.065409 99.738 154.8659
7725.645865 99.581 153.3011
7781.629080 99.427 151.5480
7838.017972 99.272 149.5708
7894.815481 99.111 147.3355
7952.024569 98.940 144.8116
8009.648217 98.753 141.9743
8067.689429 98.542 138.8054
8126.151233 98.301 135.2935
8185.036674 98.023 131.4332
8244.348824 97.700 127.2241
8304.090774 97.326 122.6660
8364.265639 96.896 117.7529
8424.876556 96.407 112.4589
8485.926684 95.858 106.7156
8547.419207 95.253 100.3654
8609.357330 94.596 93.0674
8671.744282 93.898 84.0765
8734.583316 93.173 71.6730
8797.877707 92.442 51.7437
8861.630756 91.729 17.6354
8925.845785 91.063 -21.9670
8990.526143 90.475 -47.3711
9055.675202 89.995 -61.5753
9121.296357 89.644 -70.4524
9187.393031 89.430 -76.6759
9253.968668 89.348 -81.4257
9321.026740 89.380 -85.2876
9388.570742 89.501 -88.5909
9456.604196 89.681 -91.5419
9525.130648 89.898 -94.2805
9594.153671 90.127 -96.9077
9663.676863 90.353 -99.4979
9733.703850 90.561 -102.1063
9804.238280 90.740 -104.7716
9875.283832 90.881 -107.5182
9946.844210 90.977 -110.3576
10018.923143 91.022 -113.2887
10091.524390 91.012 -116.2990
10164.651736 90.944 -119.3655
10238.308993 90.814 -122.4569
10312.500000 90.621 -125.5348
10387.228626 90.367 -128.5571
10462.498767 90.051 -131.4807
10538.314345 89.678 -134.2640
10614.679315 89.250 -136.8702
10691.597657 88.773 -139.2690
10769.073381 88.251 -141.4384
10847.110526 87.690 -143.3660
10925.713161 87.096 -145.0498
11004.885382 86.475 -146.4999
11084.631318 85.832 -147.7385
11164.955126 85.173 -148.8010
11245.860993 84.504 -149.7357
11327.353138 83.829 -150.6028
11409.435808 83.153 -151.4726
11492.113283 82.478 -152.4219
11575.389873 81.806 -153.5304
11659.269920 81.140 -154.8768
11743.757796 80.480 -156.5359
11828.857906 79.824 -158.5768
11914.574686 79.173 -161.0627
12000.912606 78.526 -164.0520
12087.876166 77.884 -167.5999
12175.469900 77.251 -171.7587
12263.698373 76.635 -176.5762
12352.566187 76.051 177.9138
12442.077974 75.525 171.7103
12532.238400 75.086 164.8736
12623.052165 74.774 157.5524
12714.524005 74.620 149.9869
12806.658687 74.647 142.4678
12899.461015 74.853 135.2604
12992.935827 75.216 128.5386
13087.087996 75.699 122.3600
13181.922430 76.260 116.6885
13277.444074 76.861 111.4349
13373.657907 77.471 106.4943
13470.568945 78.065 101.7702
13568.182241 78.628 97.1860
13666.502883 79.146 92.6878
13765.535996 79.611 88.2424
13865.286744 80.018 83.8342
13965.760328 80.362 79.4616
14066.961984 80.641 75.1334
14168.896989 80.852 70.8663
14271.570658 80.996 66.6833
14374.988342 81.073 62.6121
14479.155433 81.083 58.6841
14584.077362 81.028 54.9346
14689.759598 80.910 51.4028
14796.207652 80.733 48.1326
14903.427072 80.499 45.1731
15011.423448 80.215 42.5796
15120.202410 79.887 40.4127
15229.769630 79.526 38.7344
15340.130819 79.144 37.6005
15451.291730 78.761 37.0452
15563.258160 78.397 37.0599
15676.035944 78.077 37.5696
15789.630962 77.823 38.4182
15904.049137 77.650 39.3773
16019.296433 77.563 40.1862
16135.378859 77.552 40.6080
16252.302465 77.596 40.4780
16370.073348 77.668 39.7223
16488.697648 77.742 38.3486
16608.181548 77.792 36.4218
16728.531278 77.801 34.0394
16849.753112 77.757 31.3136
16971.853368 77.650 28.3588
17094.838414 77.478 25.2856
17218.714660 77.242 22.1959
17343.488565 76.949 19.1774
17469.166632 76.610 16.2956
17595.755415 76.241 13.5856
17723.261512 75.864 11.0427
17851.691571 75.503 8.6188
17981.052287 75.183 6.2249
18111.350404 74.928 3.7427
18242.592715 74.753 1.0412
18374.786062 74.664 -2.0063
18507.937336 74.655 -5.5074
18642.053479 74.710 -9.5405
18777.141484 74.809 -14.1461
18913.208391 74.927 -19.3181
19050.261296 75.042 -24.9917
19188.307342 75.137 -31.0309
19327.353727 75.200 -37.2166
19467.407699 75.228 -43.2446
19608.476560 75.226 -48.7451
19750.567664 75.205 -53.3217
19893.688419 75.178 -56.6086
20037.846286 75.161 -58.3270
