* Measurement data measured by REW V5.31.3
* Source: EXCL: Headset (USB-C to 3.5mm Headphone Jack Adapter), MICROPHONE (Master Volume), 0, volume: 0.170
* Format: 256k Log Swept Sine, 1 sweep at -12.0 dBFS with no timing reference
* Dated: Feb 9, 2025 1:40:11 PM
* REW Settings:
*  C-weighting compensation: Off
*  Target level: 75.0 dB
* Note: ; 
* Measurement: Ouroboros (Golem Mod) L2
* Smoothing: 1/6 octave
* Frequency Step: 96 ppo
* Start Frequency: 20.0 Hz
*
* Freq(Hz) SPL(dB) Phase(degrees)
20.141602 106.512 -116.1032
20.287556 106.499 -116.3189
20.434568 106.480 -116.6075
20.582645 106.452 -116.9596
20.731796 106.415 -117.3642
20.882027 106.367 -117.8096
21.033346 106.307 -118.2841
21.185763 106.235 -118.7767
21.339284 106.150 -119.2771
21.493917 106.054 -119.7769
21.649671 105.948 -120.2695
21.806553 105.836 -120.7505
21.964572 105.718 -121.2184
22.123737 105.598 -121.6739
22.284054 105.478 -122.1202
22.445534 105.362 -122.5625
22.608183 105.250 -123.0070
22.772012 105.146 -123.4608
22.937027 105.050 -123.9305
23.103238 104.963 -124.4215
23.270654 104.885 -124.9374
23.439282 104.816 -125.4793
23.609133 104.755 -126.0458
23.780215 104.701 -126.6327
23.952536 104.655 -127.2338
24.126106 104.615 -127.8413
24.300934 104.581 -128.4464
24.477028 104.553 -129.0406
24.654399 104.532 -129.6167
24.833055 104.516 -130.1692
25.013005 104.507 -130.6953
25.194260 104.504 -131.1952
25.376828 104.507 -131.6722
25.560719 104.514 -132.1324
25.745942 104.525 -132.5836
25.932508 104.539 -133.0351
26.120426 104.554 -133.4957
26.309705 104.567 -133.9733
26.500356 104.576 -134.4738
26.692388 104.581 -135.0003
26.885812 104.578 -135.5531
27.080638 104.567 -136.1299
27.276876 104.546 -136.7258
27.474535 104.516 -137.3345
27.673627 104.476 -137.9484
27.874161 104.429 -138.5597
28.076149 104.377 -139.1610
28.279600 104.321 -139.7455
28.484526 104.266 -140.3078
28.690937 104.214 -140.8436
28.898843 104.171 -141.3501
29.108256 104.140 -141.8259
29.319186 104.123 -142.2710
29.531645 104.123 -142.6868
29.745644 104.141 -143.0759
29.961193 104.177 -143.4419
30.178304 104.228 -143.7896
30.396989 104.292 -144.1244
30.617258 104.366 -144.4522
30.839123 104.443 -144.7790
31.062596 104.519 -145.1103
31.287688 104.589 -145.4506
31.514412 104.647 -145.8031
31.742778 104.689 -146.1690
31.972800 104.711 -146.5479
32.204488 104.710 -146.9372
32.437855 104.684 -147.3328
32.672913 104.632 -147.7294
32.909674 104.553 -148.1208
33.148151 104.450 -148.5010
33.388356 104.323 -148.8643
33.630302 104.175 -149.2063
33.874001 104.009 -149.5240
34.119466 103.827 -149.8163
34.366710 103.635 -150.0840
34.615745 103.434 -150.3294
34.866585 103.229 -150.5565
35.119243 103.023 -150.7701
35.373731 102.821 -150.9755
35.630064 102.625 -151.1778
35.888254 102.439 -151.3817
36.148315 102.266 -151.5908
36.410261 102.110 -151.8071
36.674104 101.973 -152.0309
36.939860 101.858 -152.2608
37.207542 101.766 -152.4934
37.477163 101.700 -152.7241
37.748738 101.660 -152.9474
38.022281 101.645 -153.1579
38.297806 101.656 -153.3509
38.575327 101.692 -153.5234
38.854860 101.751 -153.6748
39.136419 101.832 -153.8066
39.420017 101.933 -153.9224
39.705671 102.053 -154.0275
39.993395 102.191 -154.1274
40.283203 102.346 -154.2277
40.575112 102.516 -154.3325
40.869136 102.700 -154.4444
41.165290 102.898 -154.5640
41.463591 103.108 -154.6901
41.764053 103.328 -154.8204
42.066693 103.556 -154.9517
42.371525 103.789 -155.0811
42.678567 104.025 -155.2063
42.987834 104.259 -155.3262
43.299341 104.489 -155.4415
43.613106 104.711 -155.5541
43.929145 104.924 -155.6671
44.247473 105.123 -155.7845
44.568109 105.309 -155.9099
44.891068 105.478 -156.0461
45.216367 105.632 -156.1949
45.544023 105.768 -156.3564
45.874054 105.886 -156.5294
46.206476 105.988 -156.7118
46.541307 106.073 -156.9008
46.878565 106.141 -157.0938
47.218266 106.193 -157.2887
47.560429 106.229 -157.4842
47.905072 106.249 -157.6798
48.252212 106.256 -157.8755
48.601867 106.249 -158.0721
48.954056 106.230 -158.2703
49.308798 106.202 -158.4706
49.666109 106.165 -158.6729
50.026010 106.121 -158.8762
50.388520 106.073 -159.0789
50.753656 106.022 -159.2786
51.121437 105.971 -159.4728
51.491884 105.920 -159.6591
51.865016 105.871 -159.8358
52.240851 105.825 -160.0021
52.619410 105.784 -160.1576
53.000712 105.747 -160.3028
53.384777 105.716 -160.4383
53.771625 105.688 -160.5646
54.161276 105.666 -160.6822
54.553751 105.646 -160.7914
54.949070 105.630 -160.8925
55.347254 105.617 -160.9859
55.748323 105.605 -161.0725
56.152298 105.594 -161.1535
56.559201 105.583 -161.2307
56.969052 105.573 -161.3063
57.381873 105.563 -161.3834
57.797686 105.553 -161.4652
58.216512 105.544 -161.5549
58.638373 105.534 -161.6555
59.063291 105.526 -161.7690
59.491288 105.519 -161.8967
59.922386 105.513 -162.0392
60.356608 105.508 -162.1965
60.793977 105.506 -162.3689
61.234515 105.506 -162.5568
61.678246 105.508 -162.7609
62.125192 105.512 -162.9822
62.575377 105.518 -163.2221
63.028824 105.527 -163.4817
63.485557 105.537 -163.7623
63.945599 105.550 -164.0649
64.408975 105.565 -164.3904
64.875709 105.583 -164.7394
65.345825 105.603 -165.1125
65.819348 105.626 -165.5095
66.296302 105.651 -165.9301
66.776713 105.679 -166.3737
67.260604 105.708 -166.8392
67.748002 105.740 -167.3254
68.238932 105.774 -167.8312
68.733420 105.808 -168.3554
69.231490 105.844 -168.8970
69.733170 105.881 -169.4552
70.238485 105.917 -170.0290
70.747463 105.953 -170.6177
71.260128 105.988 -171.2204
71.776508 106.023 -171.8362
72.296630 106.055 -172.4640
72.820521 106.087 -173.1028
73.348209 106.116 -173.7517
73.879720 106.144 -174.4097
74.415083 106.170 -175.0758
74.954326 106.194 -175.7492
75.497475 106.215 -176.4289
76.044561 106.233 -177.1141
76.595612 106.248 -177.8040
77.150655 106.260 -178.4979
77.709720 106.267 -179.1951
78.272837 106.270 -179.8949
78.840034 106.268 179.4034
79.411342 106.260 178.7005
79.986789 106.246 177.9973
80.566406 106.226 177.2946
81.150224 106.201 176.5929
81.738272 106.169 175.8925
82.330581 106.133 175.1940
82.927182 106.093 174.4974
83.528107 106.049 173.8030
84.133386 106.004 173.1111
84.743051 105.961 172.4222
85.357134 105.920 171.7368
85.975667 105.887 171.0552
86.598682 105.863 170.3781
87.226212 105.853 169.7056
87.858289 105.859 169.0382
88.494946 105.885 168.3760
89.136217 105.933 167.7192
89.782135 106.002 167.0677
90.432733 106.094 166.4219
91.088046 106.206 165.7819
91.748108 106.334 165.1479
92.412952 106.475 164.5203
93.082615 106.623 163.8995
93.757130 106.773 163.2858
94.436533 106.920 162.6797
95.120859 107.058 162.0815
95.810144 107.184 161.4915
96.504423 107.295 160.9099
97.203734 107.388 160.3366
97.908112 107.463 159.7714
98.617595 107.519 159.2139
99.332219 107.557 158.6636
100.052021 107.579 158.1205
100.777039 107.587 157.5841
101.507311 107.582 157.0546
102.242875 107.567 156.5322
102.983769 107.544 156.0172
103.730032 107.514 155.5099
104.481702 107.477 155.0112
105.238820 107.434 154.5215
106.001424 107.384 154.0417
106.769554 107.327 153.5724
107.543250 107.260 153.1143
108.322553 107.182 152.6679
109.107503 107.092 152.2336
109.898141 106.989 151.8117
110.694508 106.871 151.4023
111.496646 106.739 151.0055
112.304596 106.593 150.6212
113.118402 106.433 150.2494
113.938104 106.261 149.8897
114.763747 106.079 149.5420
115.595372 105.890 149.2061
116.433024 105.695 148.8819
117.276746 105.497 148.5695
118.126581 105.297 148.2690
118.982575 105.096 147.9805
119.844772 104.897 147.7041
120.713217 104.698 147.4398
121.587954 104.501 147.1877
122.469031 104.305 146.9481
123.356492 104.108 146.7215
124.250384 103.911 146.5087
125.150753 103.712 146.3108
126.057647 103.509 146.1293
126.971113 103.302 145.9657
127.891198 103.090 145.8220
128.817950 102.871 145.7000
129.751418 102.646 145.6014
130.691651 102.415 145.5278
131.638696 102.177 145.4799
132.592604 101.933 145.4574
133.553425 101.687 145.4598
134.521208 101.439 145.4860
135.496004 101.192 145.5349
136.477864 100.950 145.6053
137.466839 100.716 145.6969
138.462981 100.493 145.8094
139.466340 100.285 145.9433
140.476971 100.095 146.0993
141.494925 99.923 146.2784
142.520256 99.771 146.4820
143.553016 99.638 146.7114
144.593260 99.522 146.9678
145.641043 99.420 147.2523
146.696418 99.328 147.5654
147.759441 99.243 147.9076
148.830166 99.162 148.2788
149.908651 99.080 148.6788
150.994951 98.996 149.1067
152.089123 98.909 149.5616
153.191223 98.818 150.0422
154.301310 98.722 150.5466
155.419441 98.624 151.0731
156.545674 98.525 151.6195
157.680069 98.427 152.1840
158.822683 98.331 152.7645
159.973578 98.239 153.3596
161.132813 98.152 153.9678
162.300447 98.072 154.5881
163.476543 98.000 155.2200
164.661162 97.935 155.8632
165.854364 97.878 156.5173
167.056213 97.829 157.1824
168.266772 97.789 157.8583
169.486102 97.758 158.5448
170.714268 97.736 159.2414
171.951334 97.723 159.9474
173.197364 97.720 160.6620
174.452424 97.726 161.3840
175.716578 97.741 162.1120
176.989893 97.766 162.8444
178.272434 97.799 163.5793
179.564270 97.840 164.3141
180.865467 97.888 165.0453
182.176092 97.943 165.7692
183.496216 98.002 166.4807
184.825905 98.066 167.1743
186.165229 98.133 167.8444
187.514259 98.204 168.4852
188.873065 98.277 169.0917
190.241717 98.353 169.6599
191.620287 98.431 170.1871
193.008847 98.510 170.6718
194.407468 98.591 171.1136
195.816225 98.674 171.5135
197.235190 98.756 171.8730
198.664438 98.839 172.1942
200.104042 98.920 172.4796
201.554078 98.999 172.7318
203.014622 99.075 172.9532
204.485750 99.148 173.1465
205.967538 99.216 173.3135
207.460064 99.280 173.4561
208.963405 99.339 173.5759
210.477640 99.394 173.6744
212.002848 99.443 173.7531
213.539108 99.489 173.8136
215.086500 99.530 173.8572
216.645105 99.569 173.8854
218.215005 99.603 173.8993
219.796281 99.635 173.9002
221.389015 99.662 173.8890
222.993292 99.686 173.8668
224.609193 99.705 173.8343
226.236804 99.718 173.7925
227.876209 99.725 173.7422
229.527494 99.725 173.6840
231.190745 99.719 173.6186
232.866048 99.706 173.5467
234.553491 99.687 173.4691
236.253163 99.662 173.3867
237.965150 99.632 173.3000
239.689544 99.598 173.2097
241.426433 99.560 173.1165
243.175909 99.521 173.0209
244.938062 99.481 172.9232
246.712984 99.442 172.8237
248.500768 99.403 172.7227
250.301507 99.366 172.6201
252.115295 99.331 172.5160
253.942226 99.300 172.4102
255.782396 99.273 172.3024
257.635901 99.250 172.1925
259.502837 99.233 172.0801
261.383301 99.220 171.9649
263.277392 99.213 171.8467
265.185209 99.212 171.7253
267.106850 99.216 171.6008
269.042417 99.226 171.4734
270.992009 99.241 171.3434
272.955729 99.259 171.2111
274.933678 99.282 171.0768
276.925961 99.307 170.9411
278.932681 99.335 170.8042
280.953942 99.364 170.6666
282.989850 99.394 170.5286
285.040511 99.425 170.3906
287.106032 99.459 170.2531
289.186521 99.494 170.1164
291.282086 99.533 169.9810
293.392836 99.575 169.8472
295.518881 99.621 169.7155
297.660333 99.672 169.5863
299.817302 99.728 169.4600
301.989902 99.787 169.3369
304.178245 99.849 169.2175
306.382446 99.912 169.1021
308.602620 99.974 168.9911
310.838882 100.034 168.8851
313.091348 100.090 168.7845
315.360137 100.140 168.6898
317.645367 100.183 168.6014
319.947156 100.218 168.5200
322.265625 100.245 168.4459
324.600895 100.261 168.3798
326.953086 100.268 168.3218
329.322323 100.265 168.2722
331.708729 100.251 168.2309
334.112427 100.227 168.1978
336.533543 100.193 168.1725
338.972204 100.149 168.1542
341.428536 100.096 168.1425
343.902668 100.036 168.1366
346.394729 99.969 168.1357
348.904848 99.898 168.1393
351.433156 99.824 168.1468
353.979786 99.749 168.1576
356.544869 99.676 168.1714
359.128540 99.609 168.1876
361.730934 99.549 168.2057
364.352185 99.500 168.2254
366.992431 99.465 168.2458
369.651810 99.445 168.2664
372.330459 99.443 168.2866
375.028519 99.460 168.3054
377.746130 99.495 168.3223
380.483434 99.548 168.3367
383.240574 99.617 168.3480
386.017693 99.700 168.3559
388.814937 99.795 168.3602
391.632450 99.898 168.3610
394.470380 100.006 168.3584
397.328875 100.118 168.3527
400.208084 100.231 168.3442
403.108157 100.344 168.3332
406.029245 100.454 168.3196
408.971500 100.561 168.3035
411.935076 100.666 168.2845
414.920127 100.769 168.2623
417.926810 100.869 168.2366
420.955280 100.969 168.2070
424.005695 101.067 168.1735
427.078215 101.166 168.1363
430.173000 101.266 168.0956
433.290211 101.367 168.0520
436.430010 101.468 168.0057
439.592562 101.568 167.9570
442.778031 101.668 167.9058
445.986583 101.765 167.8513
449.218386 101.858 167.7926
452.473607 101.945 167.7278
455.752418 102.025 167.6551
459.054987 102.096 167.5721
462.381489 102.158 167.4767
465.732096 102.210 167.3668
469.106983 102.251 167.2410
472.506325 102.283 167.0981
475.930301 102.305 166.9377
479.379088 102.318 166.7595
482.852867 102.323 166.5641
486.351817 102.320 166.3524
489.876123 102.311 166.1254
493.425968 102.295 165.8848
497.001536 102.273 165.6324
500.603014 102.246 165.3701
504.230589 102.212 165.0999
507.884452 102.173 164.8238
511.564792 102.128 164.5438
515.271802 102.077 164.2620
519.005673 102.021 163.9805
522.766602 101.960 163.7011
526.554785 101.896 163.4258
530.370418 101.831 163.1560
534.213700 101.767 162.8929
538.084833 101.707 162.6368
541.984018 101.652 162.3874
545.911457 101.605 162.1436
549.867357 101.566 161.9039
553.851922 101.536 161.6668
557.865362 101.515 161.4313
561.907884 101.500 161.1969
565.979700 101.491 160.9637
570.081022 101.484 160.7325
574.212064 101.478 160.5046
578.373042 101.470 160.2812
582.564171 101.458 160.0640
586.785671 101.441 159.8542
591.037762 101.417 159.6532
595.320665 101.385 159.4615
599.634604 101.345 159.2795
603.979804 101.298 159.1074
608.356491 101.242 158.9447
612.764893 101.178 158.7911
617.205240 101.108 158.6461
621.677763 101.033 158.5095
626.182696 100.954 158.3811
630.720274 100.872 158.2610
635.290733 100.789 158.1495
639.894312 100.708 158.0470
644.531250 100.630 157.9540
649.201789 100.557 157.8710
653.906173 100.489 157.7982
658.644647 100.429 157.7357
663.417457 100.375 157.6835
668.224854 100.328 157.6416
673.067086 100.287 157.6097
677.944408 100.251 157.5871
682.857073 100.218 157.5733
687.805336 100.188 157.5673
692.789457 100.157 157.5682
697.809695 100.126 157.5750
702.866312 100.093 157.5869
707.959571 100.057 157.6034
713.089738 100.018 157.6240
718.257080 99.974 157.6487
723.461867 99.926 157.6780
728.704370 99.875 157.7122
733.984862 99.820 157.7519
739.303619 99.763 157.7977
744.660918 99.703 157.8501
750.057038 99.642 157.9093
755.492260 99.580 157.9753
760.966869 99.518 158.0477
766.481148 99.455 158.1260
772.035387 99.392 158.2093
777.629873 99.328 158.2964
783.264900 99.263 158.3864
788.940760 99.196 158.4780
794.657750 99.126 158.5704
800.416168 99.052 158.6628
806.216313 98.973 158.7545
812.058489 98.889 158.8450
817.943000 98.800 158.9338
823.870152 98.705 159.0205
829.840255 98.605 159.1048
835.853619 98.501 159.1860
841.910559 98.392 159.2634
848.011390 98.281 159.3363
854.156430 98.167 159.4035
860.346000 98.053 159.4637
866.580422 97.939 159.5155
872.860020 97.827 159.5577
879.185124 97.716 159.5889
885.556062 97.609 159.6083
891.973166 97.505 159.6156
898.436771 97.406 159.6111
904.947215 97.311 159.5962
911.504835 97.222 159.5726
918.109975 97.140 159.5428
924.762978 97.063 159.5097
931.464192 96.993 159.4759
938.213966 96.929 159.4441
945.012651 96.872 159.4172
951.860602 96.820 159.3982
958.758176 96.773 159.3910
965.705733 96.730 159.4006
972.703635 96.690 159.4332
979.752246 96.653 159.4962
986.851935 96.618 159.5979
994.003071 96.585 159.7476
1001.206027 96.555 159.9544
1008.461179 96.529 160.2277
1015.768904 96.511 160.5757
1023.129584 96.501 161.0056
1030.543603 96.505 161.5224
1038.011347 96.525 162.1278
1045.533205 96.565 162.8192
1053.109569 96.630 163.5879
1060.740836 96.722 164.4181
1068.427401 96.844 165.2856
1076.169666 96.995 166.1578
1083.968035 97.173 166.9958
1091.822915 97.374 167.7570
1099.734713 97.593 168.4008
1107.703844 97.821 168.8941
1115.730723 98.050 169.2155
1123.815768 98.273 169.3586
1131.959400 98.483 169.3314
1140.162045 98.675 169.1541
1148.424129 98.844 168.8550
1156.746083 98.991 168.4664
1165.128342 99.116 168.0204
1173.571343 99.220 167.5460
1182.075524 99.305 167.0676
1190.641331 99.377 166.6041
1199.269209 99.437 166.1689
1207.959608 99.488 165.7706
1216.712981 99.534 165.4136
1225.529785 99.577 165.0992
1234.410479 99.618 164.8262
1243.355526 99.657 164.5918
1252.365393 99.696 164.3921
1261.440549 99.733 164.2228
1270.581467 99.770 164.0793
1279.788624 99.805 163.9572
1289.062500 99.838 163.8521
1298.403578 99.868 163.7603
1307.812346 99.897 163.6786
1317.289293 99.923 163.6041
1326.834914 99.946 163.5348
1336.449707 99.968 163.4692
1346.134173 99.987 163.4066
1355.888816 100.003 163.3463
1365.714145 100.018 163.2881
1375.610673 100.030 163.2318
1385.578915 100.040 163.1773
1395.619391 100.048 163.1245
1405.732624 100.054 163.0728
1415.919142 100.057 163.0221
1426.179476 100.059 162.9720
1436.514160 100.060 162.9222
1446.923734 100.060 162.8726
1457.408740 100.060 162.8228
1467.969724 100.061 162.7729
1478.607238 100.063 162.7227
1489.321836 100.067 162.6722
1500.114076 100.074 162.6213
1510.984521 100.085 162.5699
1521.933737 100.098 162.5177
1532.962297 100.115 162.4646
1544.070773 100.135 162.4102
1555.259747 100.159 162.3544
1566.529800 100.185 162.2969
1577.881521 100.212 162.2376
1589.315501 100.241 162.1768
1600.832336 100.271 162.1145
1612.432627 100.300 162.0512
1624.116978 100.328 161.9872
1635.886000 100.355 161.9227
1647.740304 100.380 161.8576
1659.680509 100.403 161.7917
1671.707238 100.425 161.7244
1683.821118 100.444 161.6550
1696.022780 100.462 161.5829
1708.312860 100.479 161.5071
1720.692000 100.495 161.4272
1733.160843 100.510 161.3430
1745.720041 100.525 161.2543
1758.370248 100.540 161.1619
1771.112124 100.555 161.0664
1783.946332 100.568 160.9689
1796.873543 100.580 160.8708
1809.894429 100.590 160.7737
1823.009670 100.598 160.6791
1836.219950 100.602 160.5884
1849.525956 100.603 160.5029
1862.928384 100.601 160.4237
1876.427931 100.595 160.3515
1890.025301 100.586 160.2868
1903.721204 100.573 160.2297
1917.516352 100.558 160.1804
1931.411466 100.539 160.1386
1945.407270 100.517 160.1045
1959.504493 100.491 160.0780
1973.703870 100.460 160.0592
1988.006142 100.425 160.0484
2002.412054 100.385 160.0461
2016.922357 100.337 160.0530
2031.537808 100.283 160.0698
2046.259169 100.221 160.0975
2061.087206 100.150 160.1375
2076.022694 100.071 160.1911
2091.066410 99.983 160.2602
2106.219139 99.886 160.3463
2121.481671 99.782 160.4512
2136.854802 99.670 160.5765
2152.339333 99.553 160.7232
2167.936071 99.431 160.8925
2183.645829 99.305 161.0847
2199.469427 99.178 161.3001
2215.407689 99.050 161.5385
2231.461446 98.924 161.7996
2247.631536 98.799 162.0825
2263.918800 98.678 162.3864
2280.324089 98.560 162.7104
2296.848258 98.447 163.0537
2313.492167 98.339 163.4154
2330.256685 98.235 163.7950
2347.142685 98.137 164.1920
2364.151049 98.043 164.6066
2381.282662 97.953 165.0386
2398.538418 97.868 165.4883
2415.919216 97.787 165.9555
2433.425962 97.710 166.4402
2451.059570 97.637 166.9421
2468.820958 97.569 167.4607
2486.711052 97.505 167.9954
2504.730786 97.448 168.5456
2522.881098 97.396 169.1104
2541.162934 97.353 169.6889
2559.577248 97.317 170.2800
2578.125000 97.292 170.8825
2596.807157 97.278 171.4951
2615.624692 97.276 172.1161
2634.578586 97.288 172.7438
2653.669829 97.315 173.3760
2672.899414 97.357 174.0102
2692.268345 97.415 174.6432
2711.777632 97.488 175.2717
2731.428290 97.576 175.8917
2751.221345 97.678 176.4993
2771.157829 97.791 177.0905
2791.238781 97.914 177.6618
2811.465248 98.043 178.2102
2831.838284 98.177 178.7336
2852.358952 98.312 179.2307
2873.028321 98.446 179.7015
2893.847468 98.576 -179.8531
2914.817480 98.700 -179.4317
2935.939449 98.816 -179.0314
2957.214476 98.924 -178.6495
2978.643672 99.021 -178.2825
3000.228152 99.109 -177.9270
3021.969041 99.185 -177.5800
3043.867475 99.252 -177.2386
3065.924593 99.308 -176.9005
3088.141547 99.356 -176.5639
3110.519493 99.395 -176.2273
3133.059600 99.427 -175.8897
3155.763041 99.453 -175.5504
3178.631001 99.474 -175.2086
3201.664672 99.490 -174.8639
3224.865254 99.503 -174.5156
3248.233957 99.514 -174.1631
3271.771999 99.523 -173.8060
3295.480608 99.531 -173.4436
3319.361019 99.538 -173.0752
3343.414477 99.545 -172.7001
3367.642236 99.553 -172.3174
3392.045560 99.561 -171.9259
3416.625721 99.571 -171.5240
3441.383999 99.582 -171.1098
3466.321686 99.596 -170.6812
3491.440082 99.613 -170.2364
3516.740496 99.636 -169.7738
3542.224247 99.664 -169.2925
3567.892664 99.699 -168.7928
3593.747085 99.743 -168.2757
3619.788858 99.797 -167.7436
3646.019340 99.861 -167.1996
3672.439900 99.937 -166.6478
3699.051913 100.024 -166.0930
3725.856768 100.124 -165.5403
3752.855862 100.235 -164.9951
3780.050603 100.358 -164.4623
3807.442408 100.492 -163.9465
3835.032705 100.636 -163.4516
3862.822933 100.789 -162.9802
3890.814540 100.949 -162.5345
3919.008986 101.118 -162.1157
3947.407741 101.292 -161.7247
3976.012284 101.473 -161.3622
4004.824108 101.658 -161.0289
4033.844715 101.848 -160.7260
4063.075616 102.042 -160.4551
4092.518337 102.239 -160.2182
4122.174412 102.439 -160.0178
4152.045387 102.642 -159.8567
4182.132820 102.847 -159.7381
4212.438278 103.055 -159.6652
4242.963342 103.263 -159.6413
4273.709604 103.472 -159.6696
4304.678665 103.682 -159.7535
4335.872141 103.891 -159.8962
4367.291658 104.099 -160.1008
4398.938854 104.305 -160.3705
4430.815378 104.508 -160.7083
4462.922893 104.707 -161.1173
4495.263072 104.900 -161.6007
4527.837601 105.088 -162.1621
4560.648179 105.269 -162.8050
4593.696515 105.442 -163.5335
4626.984334 105.606 -164.3513
4660.513370 105.760 -165.2618
4694.285371 105.903 -166.2674
4728.302098 106.033 -167.3693
4762.565324 106.151 -168.5664
4797.076835 106.253 -169.8555
4831.838432 106.340 -171.2307
4866.851925 106.409 -172.6833
4902.119140 106.459 -174.2017
4937.641916 106.490 -175.7721
4973.422105 106.501 -177.3782
5009.461572 106.490 -179.0023
5045.762195 106.459 179.3743
5082.325868 106.407 177.7712
5119.154496 106.334 176.2078
5156.250000 106.243 174.7029
5193.614313 106.133 173.2744
5231.249383 106.006 171.9390
5269.157173 105.866 170.7111
5307.339658 105.712 169.6035
5345.798829 105.550 168.6259
5384.536691 105.381 167.7855
5423.555263 105.208 167.0861
5462.856580 105.037 166.5281
5502.442691 104.869 166.1078
5542.315659 104.711 165.8176
5582.477563 104.565 165.6454
5622.930497 104.436 165.5752
5663.676569 104.328 165.5870
5704.717904 104.244 165.6574
5746.056642 104.186 165.7606
5787.694937 104.156 165.8689
5829.634960 104.154 165.9546
5871.878898 104.181 165.9906
5914.428953 104.232 165.9517
5957.287343 104.307 165.8155
6000.456303 104.400 165.5630
6043.938083 104.508 165.1793
6087.734950 104.624 164.6533
6131.849187 104.745 163.9781
6176.283094 104.865 163.1510
6221.038987 104.978 162.1724
6266.119200 105.080 161.0460
6311.526083 105.167 159.7785
6357.262002 105.235 158.3787
6403.329344 105.279 156.8577
6449.730508 105.298 155.2278
6496.467914 105.288 153.5035
6543.543998 105.247 151.7000
6590.961215 105.175 149.8339
6638.722037 105.069 147.9226
6686.828954 104.928 145.9848
6735.284473 104.754 144.0396
6784.091120 104.545 142.1073
6833.251441 104.302 140.2083
6882.767998 104.027 138.3637
6932.643372 103.719 136.5945
6982.880164 103.382 134.9215
7033.480992 103.016 133.3653
7084.448495 102.625 131.9455
7135.785329 102.210 130.6812
7187.494171 101.774 129.5899
7239.577717 101.320 128.6882
7292.038681 100.851 127.9907
7344.879799 100.370 127.5100
7398.103826 99.881 127.2561
7451.713536 99.387 127.2355
7505.711724 98.891 127.4504
7560.101205 98.396 127.8977
7614.884815 97.907 128.5672
7670.065409 97.426 129.4407
7725.645865 96.958 130.4902
7781.629080 96.505 131.6775
7838.017972 96.071 132.9541
7894.815481 95.658 134.2634
7952.024569 95.269 135.5446
8009.648217 94.906 136.7399
8067.689429 94.567 137.8039
8126.151233 94.251 138.7159
8185.036674 93.957 139.4956
8244.348824 93.681 140.2234
8304.090774 93.425 141.0708
8364.265639 93.190 142.3563
8424.876556 92.987 144.6548
8485.926684 92.831 149.0239
8547.419207 92.742 157.4068
8609.357330 92.744 172.7286
8671.744282 92.852 -164.6194
8734.583316 93.071 -143.0267
8797.877707 93.393 -129.5383
8861.630756 93.796 -122.8087
8925.845785 94.251 -120.0331
8990.526143 94.731 -119.4792
9055.675202 95.212 -120.2166
9121.296357 95.676 -121.7345
9187.393031 96.112 -123.7377
9253.968668 96.510 -126.0469
9321.026740 96.866 -128.5481
9388.570742 97.177 -131.1673
9456.604196 97.443 -133.8556
9525.130648 97.663 -136.5807
9594.153671 97.838 -139.3222
9663.676863 97.968 -142.0675
9733.703850 98.054 -144.8091
9804.238280 98.097 -147.5427
9875.283832 98.096 -150.2645
9946.844210 98.052 -152.9702
10018.923143 97.966 -155.6536
10091.524390 97.838 -158.3058
10164.651736 97.669 -160.9147
10238.308993 97.459 -163.4658
10312.500000 97.211 -165.9417
10387.228626 96.926 -168.3238
10462.498767 96.607 -170.5930
10538.314345 96.256 -172.7307
10614.679315 95.876 -174.7202
10691.597657 95.471 -176.5472
10769.073381 95.044 -178.2009
10847.110526 94.598 -179.6742
10925.713161 94.136 179.0358
11004.885382 93.661 177.9272
11084.631318 93.175 176.9933
11164.955126 92.681 176.2216
11245.860993 92.182 175.5939
11327.353138 91.679 175.0856
11409.435808 91.174 174.6653
11492.113283 90.671 174.2949
11575.389873 90.171 173.9297
11659.269920 89.679 173.5188
11743.757796 89.198 173.0066
11828.857906 88.731 172.3336
11914.574686 88.281 171.4392
12000.912606 87.850 170.2628
12087.876166 87.441 168.7456
12175.469900 87.054 166.8318
12263.698373 86.687 164.4679
12352.566187 86.339 161.5993
12442.077974 86.005 158.1643
12532.238400 85.684 154.0803
12623.052165 85.373 149.2150
12714.524005 85.072 143.3251
12806.658687 84.784 135.9048
12899.461015 84.513 125.7606
12992.935827 84.268 109.6312
13087.087996 84.056 78.1697
13181.922430 83.886 26.9213
13277.444074 83.762 -8.3328
13373.657907 83.686 -26.2124
13470.568945 83.655 -37.3209
13568.182241 83.663 -45.5602
13666.502883 83.700 -52.3517
13765.535996 83.755 -58.3079
13865.286744 83.817 -63.7339
13965.760328 83.874 -68.7999
14066.961984 83.915 -73.6079
14168.896989 83.932 -78.2214
14271.570658 83.915 -82.6783
14374.988342 83.857 -86.9973
14479.155433 83.751 -91.1812
14584.077362 83.592 -95.2190
14689.759598 83.377 -99.0875
14796.207652 83.102 -102.7529
14903.427072 82.768 -106.1735
15011.423448 82.375 -109.3029
15120.202410 81.927 -112.0944
15229.769630 81.430 -114.5071
15340.130819 80.893 -116.5126
15451.291730 80.327 -118.1024
15563.258160 79.745 -119.2952
15676.035944 79.162 -120.1422
15789.630962 78.595 -120.7277
15904.049137 78.061 -121.1634
16019.296433 77.572 -121.5773
16135.378859 77.138 -122.0990
16252.302465 76.765 -122.8468
16370.073348 76.451 -123.9189
16488.697648 76.191 -125.3898
16608.181548 75.972 -127.3101
16728.531278 75.780 -129.7069
16849.753112 75.600 -132.5862
16971.853368 75.414 -135.9343
17094.838414 75.209 -139.7211
17218.714660 74.974 -143.9041
17343.488565 74.703 -148.4336
17469.166632 74.397 -153.2596
17595.755415 74.061 -158.3365
17723.261512 73.711 -163.6285
17851.691571 73.365 -169.1099
17981.052287 73.052 -174.7609
18111.350404 72.798 179.4438
18242.592715 72.631 173.5577
18374.786062 72.569 167.7128
18507.937336 72.617 162.2526
18642.053479 72.768 158.2673
18777.141484 73.000 161.6567
18913.208391 73.287 -102.5320
19050.261296 73.603 -67.0972
19188.307342 73.921 -68.0055
19327.353727 74.221 -72.3005
19467.407699 74.488 -77.0718
19608.476560 74.712 -81.4719
19750.567664 74.884 -85.0799
19893.688419 75.000 -87.6296
20037.846286 75.059 -88.9485
