* Measurement data measured by REW V5.31.3
* Source: EXCL: Headset (USB-C to 3.5mm Headphone Jack Adapter), MICROPHONE (Master Volume), 0, volume: 0.260
* Format: 256k Log Swept Sine, 1 sweep at -12.0 dBFS with no timing reference
* Dated: Feb 9, 2025 9:25:35 PM
* REW Settings:
*  C-weighting compensation: Off
*  Target level: 75.0 dB
* Note: ; 
* Measurement: KSC75 R5
* Smoothing: 1/6 octave
* Frequency Step: 96 ppo
* Start Frequency: 20.0 Hz
*
* Freq(Hz) SPL(dB) Phase(degrees)
20.141602 86.344 0.5117
20.287556 86.355 0.2470
20.434568 86.368 -0.1080
20.582645 86.381 -0.5433
20.731796 86.392 -1.0481
20.882027 86.400 -1.6114
21.033346 86.403 -2.2221
21.185763 86.401 -2.8696
21.339284 86.395 -3.5441
21.493917 86.385 -4.2360
21.649671 86.373 -4.9365
21.806553 86.360 -5.6373
21.964572 86.348 -6.3304
22.123737 86.340 -7.0088
22.284054 86.335 -7.6659
22.445534 86.336 -8.2966
22.608183 86.344 -8.8968
22.772012 86.357 -9.4640
22.937027 86.378 -9.9974
23.103238 86.406 -10.4980
23.270654 86.441 -10.9689
23.439282 86.482 -11.4143
23.609133 86.530 -11.8403
23.780215 86.584 -12.2536
23.952536 86.645 -12.6617
24.126106 86.711 -13.0720
24.300934 86.784 -13.4913
24.477028 86.862 -13.9254
24.654399 86.945 -14.3787
24.833055 87.034 -14.8540
25.013005 87.127 -15.3522
25.194260 87.224 -15.8727
25.376828 87.326 -16.4131
25.560719 87.431 -16.9701
25.745942 87.540 -17.5394
25.932508 87.651 -18.1168
26.120426 87.764 -18.6979
26.309705 87.879 -19.2794
26.500356 87.995 -19.8586
26.692388 88.110 -20.4341
26.885812 88.225 -21.0058
27.080638 88.337 -21.5744
27.276876 88.447 -22.1413
27.474535 88.554 -22.7085
27.673627 88.658 -23.2778
27.874161 88.760 -23.8508
28.076149 88.861 -24.4283
28.279600 88.964 -25.0103
28.484526 89.071 -25.5960
28.690937 89.185 -26.1836
28.898843 89.310 -26.7708
29.108256 89.448 -27.3550
29.319186 89.601 -27.9336
29.531645 89.771 -28.5045
29.745644 89.957 -29.0662
29.961193 90.158 -29.6180
30.178304 90.371 -30.1599
30.396989 90.590 -30.6928
30.617258 90.812 -31.2183
30.839123 91.030 -31.7379
31.062596 91.239 -32.2534
31.287688 91.432 -32.7664
31.514412 91.606 -33.2782
31.742778 91.756 -33.7899
31.972800 91.880 -34.3021
32.204488 91.974 -34.8154
32.437855 92.038 -35.3303
32.672913 92.073 -35.8470
32.909674 92.079 -36.3659
33.148151 92.058 -36.8874
33.388356 92.015 -37.4121
33.630302 91.951 -37.9409
33.874001 91.871 -38.4747
34.119466 91.780 -39.0145
34.366710 91.682 -39.5616
34.615745 91.582 -40.1167
34.866585 91.484 -40.6804
35.119243 91.391 -41.2525
35.373731 91.308 -41.8322
35.630064 91.237 -42.4180
35.888254 91.181 -43.0078
36.148315 91.143 -43.5994
36.410261 91.124 -44.1904
36.674104 91.126 -44.7788
36.939860 91.150 -45.3631
37.207542 91.195 -45.9421
37.477163 91.263 -46.5157
37.748738 91.351 -47.0840
38.022281 91.461 -47.6483
38.297806 91.591 -48.2099
38.575327 91.741 -48.7711
38.854860 91.909 -49.3340
39.136419 92.094 -49.9002
39.420017 92.297 -50.4710
39.705671 92.516 -51.0462
39.993395 92.750 -51.6241
40.283203 92.998 -52.2024
40.575112 93.259 -52.7775
40.869136 93.533 -53.3463
41.165290 93.818 -53.9064
41.463591 94.112 -54.4569
41.764053 94.412 -54.9986
42.066693 94.718 -55.5339
42.371525 95.026 -56.0668
42.678567 95.333 -56.6015
42.987834 95.637 -57.1425
43.299341 95.936 -57.6935
43.613106 96.226 -58.2569
43.929145 96.505 -58.8333
44.247473 96.773 -59.4216
44.568109 97.025 -60.0188
44.891068 97.262 -60.6208
45.216367 97.483 -61.2228
45.544023 97.685 -61.8207
45.874054 97.869 -62.4112
46.206476 98.036 -62.9925
46.541307 98.184 -63.5644
46.878565 98.314 -64.1276
47.218266 98.428 -64.6835
47.560429 98.525 -65.2334
47.905072 98.609 -65.7784
48.252212 98.679 -66.3198
48.601867 98.738 -66.8586
48.954056 98.787 -67.3960
49.308798 98.828 -67.9336
49.666109 98.862 -68.4735
50.026010 98.891 -69.0176
50.388520 98.915 -69.5683
50.753656 98.937 -70.1274
51.121437 98.958 -70.6967
51.491884 98.979 -71.2771
51.865016 99.002 -71.8691
52.240851 99.028 -72.4724
52.619410 99.058 -73.0860
53.000712 99.093 -73.7079
53.384777 99.132 -74.3361
53.771625 99.175 -74.9679
54.161276 99.221 -75.6011
54.553751 99.269 -76.2337
54.949070 99.318 -76.8645
55.347254 99.367 -77.4930
55.748323 99.415 -78.1192
56.152298 99.461 -78.7431
56.559201 99.505 -79.3644
56.969052 99.546 -79.9828
57.381873 99.584 -80.5974
57.797686 99.619 -81.2074
58.216512 99.651 -81.8124
58.638373 99.680 -82.4129
59.063291 99.706 -83.0097
59.491288 99.729 -83.6047
59.922386 99.750 -84.2000
60.356608 99.768 -84.7976
60.793977 99.786 -85.3991
61.234515 99.802 -86.0055
61.678246 99.817 -86.6174
62.125192 99.833 -87.2349
62.575377 99.850 -87.8577
63.028824 99.868 -88.4856
63.485557 99.889 -89.1180
63.945599 99.911 -89.7545
64.408975 99.937 -90.3947
64.875709 99.966 -91.0381
65.345825 99.997 -91.6846
65.819348 100.032 -92.3340
66.296302 100.069 -92.9862
66.776713 100.109 -93.6411
67.260604 100.152 -94.2993
67.748002 100.197 -94.9611
68.238932 100.244 -95.6270
68.733420 100.293 -96.2972
69.231490 100.344 -96.9714
69.733170 100.397 -97.6487
70.238485 100.451 -98.3285
70.747463 100.506 -99.0098
71.260128 100.563 -99.6924
71.776508 100.620 -100.3760
72.296630 100.678 -101.0608
72.820521 100.737 -101.7469
73.348209 100.796 -102.4349
73.879720 100.856 -103.1253
74.415083 100.915 -103.8184
74.954326 100.974 -104.5145
75.497475 101.032 -105.2139
76.044561 101.090 -105.9163
76.595612 101.146 -106.6216
77.150655 101.200 -107.3294
77.709720 101.252 -108.0393
78.272837 101.301 -108.7507
78.840034 101.347 -109.4634
79.411342 101.389 -110.1770
79.986789 101.427 -110.8914
80.566406 101.461 -111.6066
81.150224 101.491 -112.3226
81.738272 101.517 -113.0395
82.330581 101.541 -113.7571
82.927182 101.562 -114.4756
83.528107 101.583 -115.1949
84.133386 101.606 -115.9154
84.743051 101.632 -116.6372
85.357134 101.665 -117.3606
85.975667 101.708 -118.0856
86.598682 101.764 -118.8123
87.226212 101.836 -119.5406
87.858289 101.927 -120.2701
88.494946 102.039 -121.0006
89.136217 102.175 -121.7319
89.782135 102.333 -122.4637
90.432733 102.513 -123.1957
91.088046 102.711 -123.9276
91.748108 102.925 -124.6590
92.412952 103.150 -125.3895
93.082615 103.379 -126.1186
93.757130 103.608 -126.8461
94.436533 103.832 -127.5715
95.120859 104.046 -128.2946
95.810144 104.246 -129.0150
96.504423 104.430 -129.7327
97.203734 104.596 -130.4476
97.908112 104.743 -131.1599
98.617595 104.873 -131.8695
99.332219 104.985 -132.5768
100.052021 105.083 -133.2822
100.777039 105.168 -133.9858
101.507311 105.242 -134.6879
102.242875 105.307 -135.3888
102.983769 105.365 -136.0886
103.730032 105.418 -136.7873
104.481702 105.465 -137.4849
105.238820 105.506 -138.1813
106.001424 105.541 -138.8765
106.769554 105.568 -139.5704
107.543250 105.586 -140.2630
108.322553 105.593 -140.9539
109.107503 105.588 -141.6431
109.898141 105.569 -142.3301
110.694508 105.535 -143.0145
111.496646 105.487 -143.6961
112.304596 105.424 -144.3744
113.118402 105.349 -145.0492
113.938104 105.264 -145.7202
114.763747 105.169 -146.3871
115.595372 105.068 -147.0496
116.433024 104.963 -147.7074
117.276746 104.855 -148.3602
118.126581 104.748 -149.0077
118.982575 104.641 -149.6498
119.844772 104.536 -150.2862
120.713217 104.434 -150.9167
121.587954 104.333 -151.5412
122.469031 104.234 -152.1595
123.356492 104.135 -152.7714
124.250384 104.034 -153.3765
125.150753 103.931 -153.9746
126.057647 103.824 -154.5654
126.971113 103.711 -155.1485
127.891198 103.592 -155.7237
128.817950 103.465 -156.2910
129.751418 103.331 -156.8502
130.691651 103.191 -157.4012
131.638696 103.044 -157.9440
132.592604 102.893 -158.4784
133.553425 102.741 -159.0043
134.521208 102.589 -159.5218
135.496004 102.441 -160.0310
136.477864 102.301 -160.5320
137.466839 102.171 -161.0251
138.462981 102.056 -161.5107
139.466340 101.957 -161.9894
140.476971 101.877 -162.4620
141.494925 101.816 -162.9292
142.520256 101.773 -163.3919
143.553016 101.747 -163.8507
144.593260 101.735 -164.3061
145.641043 101.733 -164.7584
146.696418 101.737 -165.2079
147.759441 101.743 -165.6547
148.830166 101.748 -166.0991
149.908651 101.749 -166.5410
150.994951 101.744 -166.9808
152.089123 101.731 -167.4186
153.191223 101.712 -167.8546
154.301310 101.685 -168.2888
155.419441 101.653 -168.7214
156.545674 101.617 -169.1524
157.680069 101.578 -169.5818
158.822683 101.540 -170.0100
159.973578 101.502 -170.4372
161.132813 101.466 -170.8637
162.300447 101.432 -171.2899
163.476543 101.402 -171.7162
164.661162 101.376 -172.1427
165.854364 101.353 -172.5694
167.056213 101.334 -172.9962
168.266772 101.318 -173.4230
169.486102 101.306 -173.8498
170.714268 101.298 -174.2766
171.951334 101.293 -174.7033
173.197364 101.293 -175.1301
174.452424 101.295 -175.5570
175.716578 101.301 -175.9839
176.989893 101.309 -176.4105
178.272434 101.318 -176.8365
179.564270 101.328 -177.2614
180.865467 101.337 -177.6845
182.176092 101.344 -178.1046
183.496216 101.348 -178.5207
184.825905 101.348 -178.9313
186.165229 101.344 -179.3348
187.514259 101.335 -179.7298
188.873065 101.322 179.8851
190.241717 101.305 179.5111
191.620287 101.285 179.1490
193.008847 101.263 178.7997
194.407468 101.240 178.4633
195.816225 101.215 178.1402
197.235190 101.190 177.8300
198.664438 101.164 177.5327
200.104042 101.137 177.2475
201.554078 101.110 176.9741
203.014622 101.082 176.7117
204.485750 101.052 176.4595
205.967538 101.019 176.2164
207.460064 100.984 175.9816
208.963405 100.946 175.7542
210.477640 100.906 175.5331
212.002848 100.863 175.3178
213.539108 100.818 175.1078
215.086500 100.771 174.9025
216.645105 100.722 174.7018
218.215005 100.673 174.5054
219.796281 100.622 174.3130
221.389015 100.569 174.1242
222.993292 100.515 173.9388
224.609193 100.459 173.7563
226.236804 100.399 173.5765
227.876209 100.336 173.3992
229.527494 100.268 173.2242
231.190745 100.196 173.0516
232.866048 100.119 172.8814
234.553491 100.037 172.7136
236.253163 99.951 172.5482
237.965150 99.861 172.3850
239.689544 99.769 172.2242
241.426433 99.675 172.0656
243.175909 99.580 171.9089
244.938062 99.485 171.7542
246.712984 99.391 171.6012
248.500768 99.300 171.4497
250.301507 99.211 171.2996
252.115295 99.125 171.1506
253.942226 99.043 171.0027
255.782396 98.967 170.8558
257.635901 98.895 170.7095
259.502837 98.829 170.5637
261.383301 98.769 170.4185
263.277392 98.716 170.2739
265.185209 98.669 170.1303
267.106850 98.629 169.9879
269.042417 98.595 169.8474
270.992009 98.566 169.7090
272.955729 98.543 169.5731
274.933678 98.525 169.4398
276.925961 98.511 169.3093
278.932681 98.499 169.1815
280.953942 98.491 169.0565
282.989850 98.485 168.9344
285.040511 98.481 168.8151
287.106032 98.481 168.6985
289.186521 98.483 168.5845
291.282086 98.491 168.4728
293.392836 98.502 168.3634
295.518881 98.520 168.2560
297.660333 98.543 168.1506
299.817302 98.572 168.0470
301.989902 98.606 167.9455
304.178245 98.644 167.8460
306.382446 98.684 167.7488
308.602620 98.724 167.6538
310.838882 98.763 167.5612
313.091348 98.799 167.4709
315.360137 98.831 167.3832
317.645367 98.856 167.2979
319.947156 98.875 167.2150
322.265625 98.885 167.1346
324.600895 98.887 167.0563
326.953086 98.879 166.9800
329.322323 98.861 166.9058
331.708729 98.833 166.8334
334.112427 98.794 166.7630
336.533543 98.745 166.6947
338.972204 98.686 166.6285
341.428536 98.618 166.5646
343.902668 98.541 166.5030
346.394729 98.457 166.4435
348.904848 98.367 166.3863
351.433156 98.273 166.3311
353.979786 98.178 166.2780
356.544869 98.083 166.2270
359.128540 97.992 166.1779
361.730934 97.907 166.1307
364.352185 97.831 166.0856
366.992431 97.768 166.0423
369.651810 97.719 166.0008
372.330459 97.686 165.9609
375.028519 97.671 165.9227
377.746130 97.674 165.8858
380.483434 97.695 165.8503
383.240574 97.731 165.8162
386.017693 97.781 165.7835
388.814937 97.843 165.7522
391.632450 97.914 165.7224
394.470380 97.990 165.6942
397.328875 98.070 165.6678
400.208084 98.151 165.6431
403.108157 98.231 165.6202
406.029245 98.309 165.5992
408.971500 98.384 165.5801
411.935076 98.456 165.5628
414.920127 98.525 165.5472
417.926810 98.591 165.5333
420.955280 98.656 165.5209
424.005695 98.719 165.5101
427.078215 98.782 165.5009
430.173000 98.846 165.4932
433.290211 98.909 165.4868
436.430010 98.973 165.4818
439.592562 99.037 165.4779
442.778031 99.100 165.4753
445.986583 99.160 165.4740
449.218386 99.216 165.4741
452.473607 99.266 165.4756
455.752418 99.309 165.4787
459.054987 99.344 165.4833
462.381489 99.370 165.4896
465.732096 99.385 165.4973
469.106983 99.389 165.5064
472.506325 99.384 165.5168
475.930301 99.368 165.5287
479.379088 99.344 165.5419
482.852867 99.311 165.5564
486.351817 99.271 165.5724
489.876123 99.226 165.5901
493.425968 99.176 165.6093
497.001536 99.121 165.6303
500.603014 99.063 165.6530
504.230589 99.002 165.6774
507.884452 98.938 165.7034
511.564792 98.871 165.7310
515.271802 98.801 165.7601
519.005673 98.729 165.7906
522.766602 98.655 165.8228
526.554785 98.581 165.8563
530.370418 98.509 165.8913
534.213700 98.439 165.9278
538.084833 98.375 165.9659
541.984018 98.317 166.0055
545.911457 98.268 166.0467
549.867357 98.228 166.0895
553.851922 98.197 166.1338
557.865362 98.175 166.1798
561.907884 98.161 166.2274
565.979700 98.152 166.2766
570.081022 98.148 166.3275
574.212064 98.146 166.3800
578.373042 98.143 166.4341
582.564171 98.139 166.4898
586.785671 98.130 166.5471
591.037762 98.117 166.6062
595.320665 98.097 166.6671
599.634604 98.071 166.7300
603.979804 98.038 166.7949
608.356491 97.998 166.8621
612.764893 97.951 166.9317
617.205240 97.898 167.0037
621.677763 97.841 167.0784
626.182696 97.780 167.1556
630.720274 97.718 167.2355
635.290733 97.656 167.3178
639.894312 97.596 167.4024
644.531250 97.540 167.4890
649.201789 97.490 167.5774
653.906173 97.446 167.6674
658.644647 97.410 167.7587
663.417457 97.382 167.8513
668.224854 97.360 167.9450
673.067086 97.345 168.0398
677.944408 97.334 168.1357
682.857073 97.326 168.2327
687.805336 97.319 168.3309
692.789457 97.313 168.4302
697.809695 97.304 168.5309
702.866312 97.293 168.6327
707.959571 97.279 168.7358
713.089738 97.260 168.8400
718.257080 97.236 168.9452
723.461867 97.209 169.0512
728.704370 97.177 169.1580
733.984862 97.141 169.2655
739.303619 97.102 169.3736
744.660918 97.061 169.4824
750.057038 97.019 169.5918
755.492260 96.975 169.7020
760.966869 96.930 169.8132
766.481148 96.885 169.9254
772.035387 96.838 170.0391
777.629873 96.789 170.1544
783.264900 96.738 170.2719
788.940760 96.684 170.3915
794.657750 96.627 170.5136
800.416168 96.564 170.6381
806.216313 96.496 170.7648
812.058489 96.422 170.8936
817.943000 96.342 171.0242
823.870152 96.256 171.1566
829.840255 96.164 171.2906
835.853619 96.067 171.4259
841.910559 95.965 171.5624
848.011390 95.860 171.7000
854.156430 95.753 171.8386
860.346000 95.644 171.9780
866.580422 95.535 172.1183
872.860020 95.428 172.2595
879.185124 95.322 172.4017
885.556062 95.221 172.5452
891.973166 95.123 172.6899
898.436771 95.032 172.8361
904.947215 94.948 172.9840
911.504835 94.871 173.1340
918.109975 94.803 173.2862
924.762978 94.745 173.4410
931.464192 94.697 173.5987
938.213966 94.659 173.7594
945.012651 94.632 173.9232
951.860602 94.615 174.0898
958.758176 94.607 174.2591
965.705733 94.609 174.4305
972.703635 94.618 174.6032
979.752246 94.635 174.7766
986.851935 94.658 174.9498
994.003071 94.688 175.1222
1001.206027 94.722 175.2931
1008.461179 94.762 175.4624
1015.768904 94.806 175.6299
1023.129584 94.856 175.7959
1030.543603 94.912 175.9607
1038.011347 94.975 176.1247
1045.533205 95.044 176.2882
1053.109569 95.121 176.4515
1060.740836 95.205 176.6148
1068.427401 95.296 176.7784
1076.169666 95.394 176.9422
1083.968035 95.497 177.1064
1091.822915 95.603 177.2710
1099.734713 95.712 177.4360
1107.703844 95.820 177.6014
1115.730723 95.927 177.7673
1123.815768 96.031 177.9340
1131.959400 96.130 178.1016
1140.162045 96.223 178.2705
1148.424129 96.309 178.4409
1156.746083 96.390 178.6130
1165.128342 96.465 178.7870
1173.571343 96.535 178.9629
1182.075524 96.602 179.1409
1190.641331 96.666 179.3212
1199.269209 96.729 179.5038
1207.959608 96.791 179.6891
1216.712981 96.854 179.8771
1225.529785 96.918 -179.9318
1234.410479 96.982 -179.7375
1243.355526 97.047 -179.5400
1252.365393 97.112 -179.3391
1261.440549 97.175 -179.1350
1270.581467 97.238 -178.9278
1279.788624 97.298 -178.7177
1289.062500 97.355 -178.5046
1298.403578 97.409 -178.2885
1307.812346 97.460 -178.0688
1317.289293 97.508 -177.8448
1326.834914 97.553 -177.6157
1336.449707 97.596 -177.3806
1346.134173 97.637 -177.1385
1355.888816 97.676 -176.8888
1365.714145 97.715 -176.6311
1375.610673 97.752 -176.3657
1385.578915 97.789 -176.0934
1395.619391 97.826 -175.8160
1405.732624 97.863 -175.5358
1415.919142 97.901 -175.2557
1426.179476 97.940 -174.9790
1436.514160 97.980 -174.7086
1446.923734 98.022 -174.4474
1457.408740 98.067 -174.1979
1467.969724 98.113 -173.9613
1478.607238 98.163 -173.7383
1489.321836 98.215 -173.5281
1500.114076 98.271 -173.3292
1510.984521 98.330 -173.1394
1521.933737 98.391 -172.9563
1532.962297 98.455 -172.7777
1544.070773 98.522 -172.6016
1555.259747 98.590 -172.4264
1566.529800 98.660 -172.2513
1577.881521 98.732 -172.0754
1589.315501 98.804 -171.8982
1600.832336 98.876 -171.7188
1612.432627 98.948 -171.5366
1624.116978 99.020 -171.3508
1635.886000 99.092 -171.1612
1647.740304 99.164 -170.9675
1659.680509 99.237 -170.7701
1671.707238 99.310 -170.5696
1683.821118 99.384 -170.3667
1696.022780 99.460 -170.1625
1708.312860 99.537 -169.9577
1720.692000 99.617 -169.7533
1733.160843 99.698 -169.5502
1745.720041 99.781 -169.3492
1758.370248 99.866 -169.1509
1771.112124 99.953 -168.9558
1783.946332 100.040 -168.7640
1796.873543 100.127 -168.5753
1809.894429 100.214 -168.3894
1823.009670 100.301 -168.2059
1836.219950 100.387 -168.0245
1849.525956 100.473 -167.8456
1862.928384 100.559 -167.6704
1876.427931 100.644 -167.5006
1890.025301 100.730 -167.3383
1903.721204 100.815 -167.1854
1917.516352 100.901 -167.0428
1931.411466 100.986 -166.9103
1945.407270 101.070 -166.7870
1959.504493 101.152 -166.6714
1973.703870 101.232 -166.5623
1988.006142 101.309 -166.4588
2002.412054 101.382 -166.3608
2016.922357 101.451 -166.2688
2031.537808 101.514 -166.1838
2046.259169 101.572 -166.1068
2061.087206 101.623 -166.0389
2076.022694 101.668 -165.9807
2091.066410 101.708 -165.9327
2106.219139 101.742 -165.8956
2121.481671 101.771 -165.8711
2136.854802 101.799 -165.8616
2152.339333 101.824 -165.8707
2167.936071 101.850 -165.9027
2183.645829 101.877 -165.9614
2199.469427 101.906 -166.0499
2215.407689 101.938 -166.1696
2231.461446 101.973 -166.3212
2247.631536 102.012 -166.5048
2263.918800 102.054 -166.7204
2280.324089 102.101 -166.9691
2296.848258 102.151 -167.2524
2313.492167 102.206 -167.5728
2330.256685 102.262 -167.9329
2347.142685 102.321 -168.3347
2364.151049 102.381 -168.7792
2381.282662 102.440 -169.2661
2398.538418 102.498 -169.7938
2415.919216 102.555 -170.3598
2433.425962 102.609 -170.9617
2451.059570 102.661 -171.5972
2468.820958 102.710 -172.2648
2486.711052 102.757 -172.9633
2504.730786 102.802 -173.6913
2522.881098 102.845 -174.4477
2541.162934 102.886 -175.2309
2559.577248 102.925 -176.0396
2578.125000 102.962 -176.8721
2596.807157 102.999 -177.7263
2615.624692 103.035 -178.5995
2634.578586 103.071 -179.4882
2653.669829 103.107 179.6115
2672.899414 103.143 178.7040
2692.268345 103.180 177.7938
2711.777632 103.217 176.8851
2731.428290 103.255 175.9818
2751.221345 103.292 175.0867
2771.157829 103.327 174.2032
2791.238781 103.360 173.3353
2811.465248 103.388 172.4881
2831.838284 103.410 171.6677
2852.358952 103.425 170.8807
2873.028321 103.430 170.1337
2893.847468 103.426 169.4324
2914.817480 103.411 168.7804
2935.939449 103.386 168.1792
2957.214476 103.349 167.6282
2978.643672 103.300 167.1264
3000.228152 103.238 166.6730
3021.969041 103.164 166.2681
3043.867475 103.077 165.9127
3065.924593 102.977 165.6090
3088.141547 102.863 165.3610
3110.519493 102.738 165.1747
3133.059600 102.600 165.0582
3155.763041 102.452 165.0201
3178.631001 102.295 165.0679
3201.664672 102.133 165.2063
3224.865254 101.967 165.4352
3248.233957 101.800 165.7511
3271.771999 101.635 166.1481
3295.480608 101.472 166.6196
3319.361019 101.314 167.1596
3343.414477 101.160 167.7643
3367.642236 101.012 168.4335
3392.045560 100.869 169.1707
3416.625721 100.734 169.9822
3441.383999 100.607 170.8750
3466.321686 100.490 171.8536
3491.440082 100.388 172.9187
3516.740496 100.302 174.0671
3542.224247 100.237 175.2928
3567.892664 100.195 176.5885
3593.747085 100.179 177.9445
3619.788858 100.194 179.3479
3646.019340 100.241 -179.2194
3672.439900 100.324 -177.7798
3699.051913 100.443 -176.3596
3725.856768 100.600 -174.9879
3752.855862 100.793 -173.6960
3780.050603 101.020 -172.5171
3807.442408 101.279 -171.4854
3835.032705 101.566 -170.6349
3862.822933 101.875 -169.9969
3890.814540 102.199 -169.5987
3919.008986 102.532 -169.4609
3947.407741 102.867 -169.5967
3976.012284 103.196 -170.0107
4004.824108 103.512 -170.6994
4033.844715 103.810 -171.6513
4063.075616 104.081 -172.8482
4092.518337 104.323 -174.2655
4122.174412 104.529 -175.8731
4152.045387 104.697 -177.6371
4182.132820 104.825 -179.5207
4212.438278 104.910 178.5135
4242.963342 104.952 176.5022
4273.709604 104.951 174.4809
4304.678665 104.908 172.4832
4335.872141 104.823 170.5414
4367.291658 104.698 168.6861
4398.938854 104.534 166.9472
4430.815378 104.332 165.3539
4462.922893 104.094 163.9352
4495.263072 103.822 162.7202
4527.837601 103.519 161.7382
4560.648179 103.186 161.0193
4593.696515 102.826 160.5961
4626.984334 102.444 160.5049
4660.513370 102.043 160.7873
4694.285371 101.628 161.4909
4728.302098 101.208 162.6673
4762.565324 100.790 164.3676
4797.076835 100.388 166.6339
4831.838432 100.017 169.4856
4866.851925 99.695 172.9033
4902.119140 99.439 176.8143
4937.641916 99.267 -178.9140
4973.422105 99.191 -174.4660
5009.461572 99.217 -170.0512
5045.762195 99.343 -165.8691
5082.325868 99.560 -162.0797
5119.154496 99.853 -158.7898
5156.250000 100.206 -156.0561
5193.614313 100.601 -153.8963
5231.249383 101.021 -152.3007
5269.157173 101.451 -151.2420
5307.339658 101.878 -150.6809
5345.798829 102.291 -150.5693
5384.536691 102.680 -150.8531
5423.555263 103.041 -151.4743
5462.856580 103.367 -152.3735
5502.442691 103.656 -153.4922
5542.315659 103.907 -154.7755
5582.477563 104.122 -156.1734
5622.930497 104.302 -157.6424
5663.676569 104.449 -159.1455
5704.717904 104.567 -160.6519
5746.056642 104.660 -162.1364
5787.694937 104.729 -163.5786
5829.634960 104.780 -164.9614
5871.878898 104.814 -166.2711
5914.428953 104.835 -167.4964
5957.287343 104.846 -168.6285
6000.456303 104.849 -169.6613
6043.938083 104.847 -170.5913
6087.734950 104.840 -171.4174
6131.849187 104.830 -172.1407
6176.283094 104.817 -172.7639
6221.038987 104.802 -173.2899
6266.119200 104.783 -173.7217
6311.526083 104.761 -174.0616
6357.262002 104.736 -174.3117
6403.329344 104.708 -174.4745
6449.730508 104.677 -174.5534
6496.467914 104.644 -174.5540
6543.543998 104.612 -174.4844
6590.961215 104.582 -174.3559
6638.722037 104.557 -174.1828
6686.828954 104.537 -173.9812
6735.284473 104.526 -173.7688
6784.091120 104.526 -173.5633
6833.251441 104.536 -173.3821
6882.767998 104.558 -173.2412
6932.643372 104.591 -173.1551
6982.880164 104.637 -173.1367
7033.480992 104.692 -173.1957
7084.448495 104.755 -173.3376
7135.785329 104.824 -173.5618
7187.494171 104.897 -173.8610
7239.577717 104.970 -174.2231
7292.038681 105.044 -174.6331
7344.879799 105.119 -175.0772
7398.103826 105.193 -175.5459
7451.713536 105.269 -176.0364
7505.711724 105.347 -176.5544
7560.101205 105.427 -177.1136
7614.884815 105.507 -177.7334
7670.065409 105.585 -178.4360
7725.645865 105.657 -179.2424
7781.629080 105.718 179.8314
7838.017972 105.762 178.7775
7894.815481 105.782 177.5984
7952.024569 105.774 176.3071
8009.648217 105.730 174.9287
8067.689429 105.647 173.4990
8126.151233 105.521 172.0645
8185.036674 105.350 170.6812
8244.348824 105.132 169.4119
8304.090774 104.871 168.3239
8364.265639 104.569 167.4839
8424.876556 104.235 166.9525
8485.926684 103.878 166.7756
8547.419207 103.512 166.9763
8609.357330 103.150 167.5480
8671.744282 102.810 168.4503
8734.583316 102.505 169.6114
8797.877707 102.250 170.9367
8861.630756 102.052 172.3210
8925.845785 101.916 173.6632
8990.526143 101.840 174.8774
9055.675202 101.819 175.8990
9121.296357 101.846 176.6862
9187.393031 101.910 177.2165
9253.968668 102.000 177.4822
9321.026740 102.107 177.4850
9388.570742 102.223 177.2322
9456.604196 102.338 176.7338
9525.130648 102.446 176.0008
9594.153671 102.543 175.0442
9663.676863 102.621 173.8742
9733.703850 102.679 172.5005
9804.238280 102.712 170.9317
9875.283832 102.717 169.1769
9946.844210 102.693 167.2462
10018.923143 102.637 165.1513
10091.524390 102.546 162.9072
10164.651736 102.420 160.5324
10238.308993 102.256 158.0495
10312.500000 102.053 155.4845
10387.228626 101.811 152.8660
10462.498767 101.531 150.2239
10538.314345 101.212 147.5880
10614.679315 100.856 144.9863
10691.597657 100.464 142.4450
10769.073381 100.039 139.9873
10847.110526 99.581 137.6342
10925.713161 99.093 135.4040
11004.885382 98.575 133.3132
11084.631318 98.030 131.3768
11164.955126 97.458 129.6078
11245.860993 96.862 128.0173
11327.353138 96.243 126.6133
11409.435808 95.606 125.3984
11492.113283 94.954 124.3669
11575.389873 94.295 123.5006
11659.269920 93.639 122.7630
11743.757796 92.998 122.0950
11828.857906 92.390 121.4120
11914.574686 91.836 120.6032
12000.912606 91.358 119.5366
12087.876166 90.980 118.0667
12175.469900 90.722 116.0449
12263.698373 90.597 113.3286
12352.566187 90.607 109.7894
12442.077974 90.742 105.3170
12532.238400 90.985 99.8240
12623.052165 91.313 93.2520
12714.524005 91.701 85.5820
12806.658687 92.126 76.8493
12899.461015 92.564 67.1570
12992.935827 93.000 56.6829
13087.087996 93.417 45.6642
13181.922430 93.804 34.3671
13277.444074 94.151 23.0440
13373.657907 94.452 11.8984
13470.568945 94.700 1.0701
13568.182241 94.894 -9.3615
13666.502883 95.029 -19.3630
13765.535996 95.103 -28.9299
13865.286744 95.114 -38.0716
13965.760328 95.061 -46.8004
14066.961984 94.939 -55.1248
14168.896989 94.748 -63.0458
14271.570658 94.485 -70.5558
14374.988342 94.150 -77.6405
14479.155433 93.745 -84.2799
14584.077362 93.270 -90.4512
14689.759598 92.729 -96.1299
14796.207652 92.125 -101.2906
14903.427072 91.463 -105.9072
15011.423448 90.748 -109.9539
15120.202410 89.984 -113.4055
15229.769630 89.180 -116.2416
15340.130819 88.341 -118.4493
15451.291730 87.477 -120.0276
15563.258160 86.596 -120.9908
15676.035944 85.711 -121.3688
15789.630962 84.832 -121.2035
15904.049137 83.974 -120.5433
16019.296433 83.150 -119.4346
16135.378859 82.377 -117.9161
16252.302465 81.676 -116.0197
16370.073348 81.070 -113.7787
16488.697648 80.587 -111.2439
16608.181548 80.254 -108.5028
16728.531278 80.095 -105.6938
16849.753112 80.120 -103.0081
16971.853368 80.324 -100.6729
17094.838414 80.684 -98.9202
17218.714660 81.163 -97.9514
17343.488565 81.724 -97.9100
17469.166632 82.328 -98.8718
17595.755415 82.943 -100.8495
17723.261512 83.546 -103.8079
17851.691571 84.118 -107.6820
17981.052287 84.648 -112.3936
18111.350404 85.127 -117.8630
18242.592715 85.551 -124.0188
18374.786062 85.916 -130.8021
18507.937336 86.220 -138.1705
18642.053479 86.463 -146.0999
18777.141484 86.642 -154.5835
18913.208391 86.756 -163.6302
19050.261296 86.808 -173.2542
19188.307342 86.801 176.5505
19327.353727 86.742 165.8656
19467.407699 86.644 154.9516
19608.476560 86.526 144.3682
19750.567664 86.408 135.0173
19893.688419 86.314 127.9818
20037.846286 86.261 124.2017
