* Measurement data measured by REW V5.31.3
* Source: EXCL: Headset (USB-C to 3.5mm Headphone Jack Adapter), MICROPHONE (Master Volume), 0, volume: 0.260
* Format: 256k Log Swept Sine, 1 sweep at -12.0 dBFS with no timing reference
* Dated: Feb 9, 2025 9:26:34 PM
* REW Settings:
*  C-weighting compensation: Off
*  Target level: 75.0 dB
* Note: ; 
* Measurement: KSC75 R8
* Smoothing: 1/6 octave
* Frequency Step: 96 ppo
* Start Frequency: 20.0 Hz
*
* Freq(Hz) SPL(dB) Phase(degrees)
20.141602 85.602 2.2245
20.287556 85.620 2.1306
20.434568 85.642 2.0033
20.582645 85.666 1.8438
20.731796 85.687 1.6522
20.882027 85.704 1.4275
21.033346 85.714 1.1676
21.185763 85.715 0.8698
21.339284 85.708 0.5307
21.493917 85.692 0.1475
21.649671 85.669 -0.2821
21.806553 85.641 -0.7589
21.964572 85.608 -1.2826
22.123737 85.574 -1.8509
22.284054 85.542 -2.4602
22.445534 85.512 -3.1054
22.608183 85.489 -3.7803
22.772012 85.475 -4.4777
22.937027 85.470 -5.1903
23.103238 85.476 -5.9105
23.270654 85.496 -6.6311
23.439282 85.530 -7.3457
23.609133 85.577 -8.0492
23.780215 85.639 -8.7374
23.952536 85.716 -9.4079
24.126106 85.806 -10.0597
24.300934 85.908 -10.6930
24.477028 86.021 -11.3096
24.654399 86.143 -11.9117
24.833055 86.272 -12.5026
25.013005 86.406 -13.0852
25.194260 86.542 -13.6626
25.376828 86.678 -14.2371
25.560719 86.812 -14.8103
25.745942 86.942 -15.3826
25.932508 87.066 -15.9539
26.120426 87.183 -16.5230
26.309705 87.293 -17.0880
26.500356 87.396 -17.6468
26.692388 87.491 -18.1972
26.885812 87.580 -18.7371
27.080638 87.664 -19.2650
27.276876 87.743 -19.7799
27.474535 87.821 -20.2817
27.673627 87.898 -20.7713
27.874161 87.978 -21.2506
28.076149 88.064 -21.7225
28.279600 88.159 -22.1907
28.484526 88.265 -22.6599
28.690937 88.385 -23.1350
28.898843 88.522 -23.6212
29.108256 88.676 -24.1230
29.319186 88.847 -24.6442
29.531645 89.034 -25.1869
29.745644 89.235 -25.7517
29.961193 89.447 -26.3370
30.178304 89.664 -26.9394
30.396989 89.883 -27.5540
30.617258 90.098 -28.1749
30.839123 90.305 -28.7959
31.062596 90.500 -29.4113
31.287688 90.678 -30.0164
31.514412 90.837 -30.6078
31.742778 90.973 -31.1841
31.972800 91.084 -31.7452
32.204488 91.169 -32.2924
32.437855 91.228 -32.8280
32.672913 91.260 -33.3549
32.909674 91.267 -33.8759
33.148151 91.250 -34.3940
33.388356 91.212 -34.9116
33.630302 91.156 -35.4308
33.874001 91.085 -35.9533
34.119466 91.003 -36.4802
34.366710 90.913 -37.0123
34.615745 90.821 -37.5499
34.866585 90.729 -38.0930
35.119243 90.642 -38.6415
35.373731 90.562 -39.1952
35.630064 90.494 -39.7543
35.888254 90.440 -40.3189
36.148315 90.402 -40.8892
36.410261 90.383 -41.4653
36.674104 90.383 -42.0471
36.939860 90.404 -42.6337
37.207542 90.445 -43.2237
37.477163 90.508 -43.8152
37.748738 90.593 -44.4064
38.022281 90.699 -44.9955
38.297806 90.826 -45.5815
38.575327 90.973 -46.1639
38.854860 91.140 -46.7430
39.136419 91.326 -47.3197
39.420017 91.530 -47.8950
39.705671 91.751 -48.4696
39.993395 91.988 -49.0445
40.283203 92.240 -49.6201
40.575112 92.506 -50.1968
40.869136 92.785 -50.7752
41.165290 93.074 -51.3553
41.463591 93.372 -51.9374
41.764053 93.677 -52.5213
42.066693 93.986 -53.1066
42.371525 94.297 -53.6925
42.678567 94.606 -54.2782
42.987834 94.911 -54.8630
43.299341 95.211 -55.4462
43.613106 95.501 -56.0277
43.929145 95.782 -56.6076
44.247473 96.050 -57.1861
44.568109 96.304 -57.7641
44.891068 96.544 -58.3422
45.216367 96.769 -58.9212
45.544023 96.978 -59.5017
45.874054 97.172 -60.0838
46.206476 97.349 -60.6670
46.541307 97.509 -61.2499
46.878565 97.653 -61.8307
47.218266 97.781 -62.4073
47.560429 97.893 -62.9784
47.905072 97.990 -63.5437
48.252212 98.073 -64.1042
48.601867 98.143 -64.6625
48.954056 98.202 -65.2222
49.308798 98.251 -65.7868
49.666109 98.290 -66.3595
50.026010 98.324 -66.9426
50.388520 98.352 -67.5371
50.753656 98.377 -68.1431
51.121437 98.401 -68.7596
51.491884 98.426 -69.3851
51.865016 98.452 -70.0176
52.240851 98.482 -70.6542
52.619410 98.515 -71.2923
53.000712 98.551 -71.9291
53.384777 98.592 -72.5627
53.771625 98.636 -73.1919
54.161276 98.682 -73.8168
54.553751 98.730 -74.4381
54.949070 98.778 -75.0573
55.347254 98.826 -75.6759
55.748323 98.873 -76.2955
56.152298 98.918 -76.9173
56.559201 98.961 -77.5423
56.969052 99.001 -78.1713
57.381873 99.037 -78.8043
57.797686 99.071 -79.4413
58.216512 99.102 -80.0816
58.638373 99.131 -80.7241
59.063291 99.157 -81.3674
59.491288 99.181 -82.0099
59.922386 99.203 -82.6501
60.356608 99.224 -83.2871
60.793977 99.243 -83.9209
61.234515 99.262 -84.5522
61.678246 99.281 -85.1822
62.125192 99.300 -85.8124
62.575377 99.321 -86.4438
63.028824 99.343 -87.0774
63.485557 99.367 -87.7139
63.945599 99.392 -88.3537
64.408975 99.420 -88.9975
64.875709 99.449 -89.6460
65.345825 99.481 -90.2999
65.819348 99.516 -90.9597
66.296302 99.553 -91.6259
66.776713 99.592 -92.2983
67.260604 99.634 -92.9767
67.748002 99.679 -93.6602
68.238932 99.726 -94.3482
68.733420 99.775 -95.0396
69.231490 99.826 -95.7336
69.733170 99.879 -96.4295
70.238485 99.933 -97.1269
70.747463 99.989 -97.8253
71.260128 100.045 -98.5249
71.776508 100.102 -99.2256
72.296630 100.160 -99.9279
72.820521 100.218 -100.6322
73.348209 100.276 -101.3387
73.879720 100.335 -102.0478
74.415083 100.393 -102.7597
74.954326 100.452 -103.4745
75.497475 100.509 -104.1921
76.044561 100.566 -104.9125
76.595612 100.621 -105.6355
77.150655 100.675 -106.3609
77.709720 100.727 -107.0885
78.272837 100.775 -107.8181
78.840034 100.821 -108.5497
79.411342 100.863 -109.2834
79.986789 100.901 -110.0193
80.566406 100.934 -110.7573
81.150224 100.964 -111.4976
81.738272 100.990 -112.2401
82.330581 101.013 -112.9845
82.927182 101.033 -113.7305
83.528107 101.053 -114.4776
84.133386 101.075 -115.2253
84.743051 101.100 -115.9731
85.357134 101.131 -116.7206
85.975667 101.171 -117.4677
86.598682 101.225 -118.2142
87.226212 101.294 -118.9604
87.858289 101.382 -119.7063
88.494946 101.492 -120.4520
89.136217 101.624 -121.1973
89.782135 101.780 -121.9422
90.432733 101.956 -122.6860
91.088046 102.152 -123.4286
91.748108 102.364 -124.1695
92.412952 102.586 -124.9086
93.082615 102.813 -125.6455
93.757130 103.040 -126.3802
94.436533 103.262 -127.1126
95.120859 103.475 -127.8425
95.810144 103.674 -128.5698
96.504423 103.856 -129.2946
97.203734 104.021 -130.0168
97.908112 104.168 -130.7363
98.617595 104.296 -131.4532
99.332219 104.408 -132.1674
100.052021 104.504 -132.8790
100.777039 104.587 -133.5880
101.507311 104.659 -134.2944
102.242875 104.723 -134.9985
102.983769 104.779 -135.7003
103.730032 104.829 -136.3997
104.481702 104.873 -137.0966
105.238820 104.911 -137.7908
106.001424 104.943 -138.4822
106.769554 104.968 -139.1703
107.543250 104.983 -139.8548
108.322553 104.987 -140.5354
109.107503 104.979 -141.2119
109.898141 104.958 -141.8840
110.694508 104.922 -142.5517
111.496646 104.873 -143.2146
112.304596 104.810 -143.8726
113.118402 104.734 -144.5255
113.938104 104.648 -145.1733
114.763747 104.553 -145.8160
115.595372 104.452 -146.4535
116.433024 104.346 -147.0862
117.276746 104.239 -147.7145
118.126581 104.132 -148.3386
118.982575 104.026 -148.9588
119.844772 103.922 -149.5754
120.713217 103.820 -150.1882
121.587954 103.721 -150.7968
122.469031 103.624 -151.4011
123.356492 103.528 -152.0005
124.250384 103.430 -152.5949
125.150753 103.331 -153.1841
126.057647 103.227 -153.7681
126.971113 103.119 -154.3469
127.891198 103.005 -154.9206
128.817950 102.883 -155.4894
129.751418 102.755 -156.0533
130.691651 102.620 -156.6125
131.638696 102.479 -157.1668
132.592604 102.334 -157.7162
133.553425 102.187 -158.2607
134.521208 102.041 -158.8004
135.496004 101.898 -159.3350
136.477864 101.762 -159.8645
137.466839 101.637 -160.3889
138.462981 101.525 -160.9082
139.466340 101.430 -161.4222
140.476971 101.352 -161.9313
141.494925 101.293 -162.4355
142.520256 101.253 -162.9352
143.553016 101.228 -163.4304
144.593260 101.217 -163.9216
145.641043 101.216 -164.4090
146.696418 101.220 -164.8927
147.759441 101.227 -165.3728
148.830166 101.231 -165.8494
149.908651 101.232 -166.3225
150.994951 101.226 -166.7923
152.089123 101.212 -167.2590
153.191223 101.192 -167.7228
154.301310 101.164 -168.1839
155.419441 101.130 -168.6426
156.545674 101.093 -169.0989
157.680069 101.053 -169.5531
158.822683 101.012 -170.0052
159.973578 100.972 -170.4556
161.132813 100.934 -170.9047
162.300447 100.898 -171.3526
163.476543 100.865 -171.7999
164.661162 100.835 -172.2467
165.854364 100.809 -172.6932
167.056213 100.786 -173.1396
168.266772 100.766 -173.5857
169.486102 100.750 -174.0318
170.714268 100.737 -174.4779
171.951334 100.729 -174.9241
173.197364 100.723 -175.3704
174.452424 100.722 -175.8167
175.716578 100.723 -176.2628
176.989893 100.727 -176.7080
178.272434 100.732 -177.1517
179.564270 100.738 -177.5928
180.865467 100.743 -178.0303
182.176092 100.745 -178.4630
183.496216 100.744 -178.8894
184.825905 100.740 -179.3082
186.165229 100.730 -179.7180
187.514259 100.717 179.8826
188.873065 100.698 179.4949
190.241717 100.676 179.1199
191.620287 100.651 178.7588
193.008847 100.624 178.4122
194.407468 100.595 178.0806
195.816225 100.566 177.7643
197.235190 100.536 177.4633
198.664438 100.505 177.1771
200.104042 100.475 176.9054
201.554078 100.443 176.6473
203.014622 100.411 176.4021
204.485750 100.377 176.1688
205.967538 100.341 175.9464
207.460064 100.303 175.7339
208.963405 100.262 175.5304
210.477640 100.219 175.3353
212.002848 100.174 175.1477
213.539108 100.127 174.9669
215.086500 100.079 174.7921
216.645105 100.029 174.6227
218.215005 99.978 174.4580
219.796281 99.926 174.2972
221.389015 99.872 174.1397
222.993292 99.817 173.9849
224.609193 99.760 173.8322
226.236804 99.700 173.6810
227.876209 99.636 173.5310
229.527494 99.567 173.3819
231.190745 99.495 173.2334
232.866048 99.417 173.0853
234.553491 99.335 172.9374
236.253163 99.248 172.7899
237.965150 99.159 172.6429
239.689544 99.066 172.4966
241.426433 98.972 172.3515
243.175909 98.877 172.2078
244.938062 98.783 172.0656
246.712984 98.689 171.9252
248.500768 98.598 171.7866
250.301507 98.510 171.6498
252.115295 98.425 171.5146
253.942226 98.344 171.3812
255.782396 98.267 171.2493
257.635901 98.196 171.1189
259.502837 98.131 170.9898
261.383301 98.071 170.8619
263.277392 98.018 170.7349
265.185209 97.972 170.6085
267.106850 97.931 170.4825
269.042417 97.897 170.3568
270.992009 97.869 170.2313
272.955729 97.847 170.1060
274.933678 97.829 169.9814
276.925961 97.814 169.8576
278.932681 97.804 169.7351
280.953942 97.796 169.6143
282.989850 97.791 169.4955
285.040511 97.788 169.3790
287.106032 97.788 169.2650
289.186521 97.792 169.1534
291.282086 97.800 169.0444
293.392836 97.813 168.9378
295.518881 97.832 168.8334
297.660333 97.856 168.7313
299.817302 97.886 168.6312
301.989902 97.921 168.5334
304.178245 97.960 168.4379
306.382446 98.001 168.3447
308.602620 98.042 168.2539
310.838882 98.083 168.1656
313.091348 98.120 168.0798
315.360137 98.152 167.9967
317.645367 98.178 167.9163
319.947156 98.197 167.8386
322.265625 98.208 167.7636
324.600895 98.210 167.6913
326.953086 98.202 167.6216
329.322323 98.185 167.5541
331.708729 98.157 167.4887
334.112427 98.118 167.4252
336.533543 98.069 167.3634
338.972204 98.010 167.3031
341.428536 97.942 167.2444
343.902668 97.866 167.1871
346.394729 97.782 167.1315
348.904848 97.692 167.0777
351.433156 97.598 167.0258
353.979786 97.503 166.9758
356.544869 97.408 166.9280
359.128540 97.317 166.8822
361.730934 97.233 166.8386
364.352185 97.157 166.7971
366.992431 97.094 166.7575
369.651810 97.045 166.7199
372.330459 97.013 166.6841
375.028519 96.998 166.6499
377.746130 97.001 166.6175
380.483434 97.021 166.5867
383.240574 97.058 166.5576
386.017693 97.108 166.5303
388.814937 97.170 166.5049
391.632450 97.241 166.4814
394.470380 97.317 166.4600
397.328875 97.397 166.4404
400.208084 97.477 166.4228
403.108157 97.558 166.4070
406.029245 97.636 166.3928
408.971500 97.711 166.3802
411.935076 97.783 166.3690
414.920127 97.852 166.3591
417.926810 97.919 166.3505
420.955280 97.983 166.3430
424.005695 98.047 166.3368
427.078215 98.110 166.3318
430.173000 98.173 166.3280
433.290211 98.237 166.3255
436.430010 98.301 166.3243
439.592562 98.365 166.3246
442.778031 98.427 166.3264
445.986583 98.487 166.3297
449.218386 98.543 166.3348
452.473607 98.594 166.3415
455.752418 98.637 166.3500
459.054987 98.672 166.3603
462.381489 98.697 166.3724
465.732096 98.713 166.3865
469.106983 98.717 166.4025
472.506325 98.712 166.4203
475.930301 98.697 166.4398
479.379088 98.672 166.4610
482.852867 98.640 166.4837
486.351817 98.600 166.5078
489.876123 98.555 166.5333
493.425968 98.505 166.5601
497.001536 98.451 166.5884
500.603014 98.393 166.6180
504.230589 98.331 166.6492
507.884452 98.267 166.6820
511.564792 98.199 166.7164
515.271802 98.129 166.7525
519.005673 98.057 166.7903
522.766602 97.983 166.8300
526.554785 97.909 166.8716
530.370418 97.837 166.9151
534.213700 97.767 166.9605
538.084833 97.703 167.0078
541.984018 97.646 167.0566
545.911457 97.597 167.1071
549.867357 97.557 167.1589
553.851922 97.527 167.2119
557.865362 97.506 167.2660
561.907884 97.493 167.3212
565.979700 97.485 167.3776
570.081022 97.482 167.4350
574.212064 97.480 167.4935
578.373042 97.478 167.5532
582.564171 97.474 167.6141
586.785671 97.466 167.6763
591.037762 97.453 167.7397
595.320665 97.434 167.8047
599.634604 97.408 167.8714
603.979804 97.374 167.9400
608.356491 97.334 168.0109
612.764893 97.287 168.0842
617.205240 97.234 168.1603
621.677763 97.176 168.2393
626.182696 97.115 168.3213
630.720274 97.052 168.4062
635.290733 96.990 168.4941
639.894312 96.929 168.5848
644.531250 96.873 168.6780
649.201789 96.822 168.7736
653.906173 96.777 168.8714
658.644647 96.741 168.9714
663.417457 96.711 169.0734
668.224854 96.689 169.1773
673.067086 96.673 169.2831
677.944408 96.662 169.3905
682.857073 96.654 169.4996
687.805336 96.647 169.6101
692.789457 96.640 169.7220
697.809695 96.631 169.8353
702.866312 96.620 169.9499
707.959571 96.605 170.0658
713.089738 96.586 170.1827
718.257080 96.563 170.3008
723.461867 96.535 170.4197
728.704370 96.503 170.5395
733.984862 96.467 170.6600
739.303619 96.429 170.7813
744.660918 96.387 170.9033
750.057038 96.345 171.0262
755.492260 96.301 171.1500
760.966869 96.256 171.2750
766.481148 96.210 171.4012
772.035387 96.163 171.5291
777.629873 96.115 171.6588
783.264900 96.064 171.7908
788.940760 96.011 171.9252
794.657750 95.953 172.0620
800.416168 95.891 172.2011
806.216313 95.823 172.3424
812.058489 95.750 172.4857
817.943000 95.670 172.6306
823.870152 95.584 172.7771
829.840255 95.493 172.9249
835.853619 95.396 173.0736
841.910559 95.295 173.2230
848.011390 95.191 173.3728
854.156430 95.084 173.5228
860.346000 94.977 173.6729
866.580422 94.869 173.8229
872.860020 94.762 173.9730
879.185124 94.658 174.1234
885.556062 94.557 174.2742
891.973166 94.460 174.4259
898.436771 94.370 174.5789
904.947215 94.286 174.7337
911.504835 94.209 174.8908
918.109975 94.142 175.0507
924.762978 94.084 175.2139
931.464192 94.036 175.3807
938.213966 93.998 175.5515
945.012651 93.970 175.7261
951.860602 93.953 175.9045
958.758176 93.945 176.0862
965.705733 93.946 176.2706
972.703635 93.955 176.4571
979.752246 93.972 176.6449
986.851935 93.995 176.8332
994.003071 94.024 177.0213
1001.206027 94.058 177.2089
1008.461179 94.097 177.3954
1015.768904 94.141 177.5811
1023.129584 94.191 177.7657
1030.543603 94.247 177.9496
1038.011347 94.310 178.1329
1045.533205 94.379 178.3156
1053.109569 94.456 178.4980
1060.740836 94.541 178.6801
1068.427401 94.632 178.8618
1076.169666 94.730 179.0431
1083.968035 94.834 179.2242
1091.822915 94.941 179.4050
1099.734713 95.050 179.5856
1107.703844 95.159 179.7663
1115.730723 95.267 179.9471
1123.815768 95.371 -179.8715
1131.959400 95.471 -179.6895
1140.162045 95.564 -179.5066
1148.424129 95.652 -179.3229
1156.746083 95.733 -179.1381
1165.128342 95.809 -178.9521
1173.571343 95.880 -178.7647
1182.075524 95.947 -178.5756
1190.641331 96.011 -178.3843
1199.269209 96.074 -178.1903
1207.959608 96.137 -177.9930
1216.712981 96.199 -177.7919
1225.529785 96.262 -177.5864
1234.410479 96.326 -177.3761
1243.355526 96.390 -177.1608
1252.365393 96.453 -176.9404
1261.440549 96.517 -176.7151
1270.581467 96.578 -176.4854
1279.788624 96.638 -176.2517
1289.062500 96.695 -176.0144
1298.403578 96.749 -175.7735
1307.812346 96.800 -175.5287
1317.289293 96.849 -175.2791
1326.834914 96.894 -175.0236
1336.449707 96.938 -174.7609
1346.134173 96.979 -174.4898
1355.888816 97.020 -174.2099
1365.714145 97.060 -173.9210
1375.610673 97.099 -173.6243
1385.578915 97.139 -173.3215
1395.619391 97.179 -173.0158
1405.732624 97.219 -172.7105
1415.919142 97.261 -172.4095
1426.179476 97.303 -172.1165
1436.514160 97.347 -171.8350
1446.923734 97.393 -171.5676
1457.408740 97.440 -171.3159
1467.969724 97.489 -171.0805
1478.607238 97.539 -170.8606
1489.321836 97.592 -170.6542
1500.114076 97.648 -170.4583
1510.984521 97.705 -170.2694
1521.933737 97.765 -170.0840
1532.962297 97.827 -169.8988
1544.070773 97.891 -169.7115
1555.259747 97.957 -169.5205
1566.529800 98.025 -169.3249
1577.881521 98.094 -169.1243
1589.315501 98.164 -168.9185
1600.832336 98.234 -168.7074
1612.432627 98.306 -168.4906
1624.116978 98.377 -168.2682
1635.886000 98.449 -168.0404
1647.740304 98.521 -167.8076
1659.680509 98.595 -167.5710
1671.707238 98.669 -167.3319
1683.821118 98.746 -167.0920
1696.022780 98.824 -166.8529
1708.312860 98.904 -166.6162
1720.692000 98.986 -166.3835
1733.160843 99.071 -166.1560
1745.720041 99.157 -165.9347
1758.370248 99.245 -165.7199
1771.112124 99.334 -165.5112
1783.946332 99.423 -165.3077
1796.873543 99.512 -165.1081
1809.894429 99.600 -164.9110
1823.009670 99.687 -164.7153
1836.219950 99.774 -164.5203
1849.525956 99.860 -164.3262
1862.928384 99.945 -164.1339
1876.427931 100.030 -163.9444
1890.025301 100.114 -163.7587
1903.721204 100.199 -163.5777
1917.516352 100.284 -163.4013
1931.411466 100.369 -163.2294
1945.407270 100.453 -163.0618
1959.504493 100.537 -162.8985
1973.703870 100.619 -162.7405
1988.006142 100.700 -162.5895
2002.412054 100.777 -162.4475
2016.922357 100.850 -162.3169
2031.537808 100.919 -162.1996
2046.259169 100.982 -162.0970
2061.087206 101.038 -162.0100
2076.022694 101.087 -161.9384
2091.066410 101.130 -161.8814
2106.219139 101.167 -161.8382
2121.481671 101.198 -161.8083
2136.854802 101.226 -161.7924
2152.339333 101.251 -161.7918
2167.936071 101.276 -161.8088
2183.645829 101.301 -161.8460
2199.469427 101.328 -161.9055
2215.407689 101.358 -161.9891
2231.461446 101.391 -162.0987
2247.631536 101.428 -162.2359
2263.918800 101.470 -162.4026
2280.324089 101.517 -162.6012
2296.848258 101.567 -162.8338
2313.492167 101.621 -163.1022
2330.256685 101.678 -163.4074
2347.142685 101.736 -163.7495
2364.151049 101.796 -164.1284
2381.282662 101.856 -164.5434
2398.538418 101.916 -164.9937
2415.919216 101.976 -165.4787
2433.425962 102.035 -165.9977
2451.059570 102.092 -166.5505
2468.820958 102.149 -167.1375
2486.711052 102.205 -167.7585
2504.730786 102.259 -168.4133
2522.881098 102.312 -169.1011
2541.162934 102.363 -169.8205
2559.577248 102.414 -170.5700
2578.125000 102.464 -171.3477
2596.807157 102.513 -172.1513
2615.624692 102.561 -172.9777
2634.578586 102.610 -173.8227
2653.669829 102.658 -174.6813
2672.899414 102.707 -175.5478
2692.268345 102.757 -176.4164
2711.777632 102.809 -177.2820
2731.428290 102.861 -178.1407
2751.221345 102.915 -178.9897
2771.157829 102.968 -179.8280
2791.238781 103.021 179.3450
2811.465248 103.072 178.5302
2831.838284 103.118 177.7286
2852.358952 103.158 176.9413
2873.028321 103.190 176.1693
2893.847468 103.211 175.4146
2914.817480 103.220 174.6807
2935.939449 103.213 173.9740
2957.214476 103.191 173.3031
2978.643672 103.151 172.6785
3000.228152 103.093 172.1113
3021.969041 103.019 171.6110
3043.867475 102.930 171.1844
3065.924593 102.827 170.8345
3088.141547 102.712 170.5611
3110.519493 102.588 170.3618
3133.059600 102.455 170.2334
3155.763041 102.315 170.1722
3178.631001 102.169 170.1756
3201.664672 102.017 170.2423
3224.865254 101.862 170.3740
3248.233957 101.702 170.5753
3271.771999 101.540 170.8534
3295.480608 101.375 171.2161
3319.361019 101.211 171.6703
3343.414477 101.049 172.2207
3367.642236 100.891 172.8689
3392.045560 100.740 173.6137
3416.625721 100.598 174.4515
3441.383999 100.467 175.3771
3466.321686 100.350 176.3842
3491.440082 100.248 177.4676
3516.740496 100.164 178.6239
3542.224247 100.100 179.8520
3567.892664 100.059 -178.8489
3593.747085 100.045 -177.4818
3619.788858 100.060 -176.0553
3646.019340 100.109 -174.5853
3672.439900 100.194 -173.0942
3699.051913 100.318 -171.6102
3725.856768 100.480 -170.1650
3752.855862 100.682 -168.7931
3780.050603 100.920 -167.5309
3807.442408 101.193 -166.4164
3835.032705 101.494 -165.4879
3862.822933 101.819 -164.7815
3890.814540 102.160 -164.3284
3919.008986 102.511 -164.1514
3947.407741 102.862 -164.2636
3976.012284 103.207 -164.6678
4004.824108 103.538 -165.3571
4033.844715 103.849 -166.3159
4063.075616 104.133 -167.5217
4092.518337 104.387 -168.9464
4122.174412 104.606 -170.5581
4152.045387 104.788 -172.3231
4182.132820 104.930 -174.2063
4212.438278 105.031 -176.1732
4242.963342 105.090 -178.1894
4273.709604 105.107 179.7790
4304.678665 105.082 177.7654
4335.872141 105.016 175.8029
4367.291658 104.909 173.9231
4398.938854 104.763 172.1563
4430.815378 104.580 170.5321
4462.922893 104.361 169.0790
4495.263072 104.109 167.8252
4527.837601 103.826 166.7991
4560.648179 103.515 166.0304
4593.696515 103.178 165.5519
4626.984334 102.819 165.4008
4660.513370 102.442 165.6199
4694.285371 102.053 166.2564
4728.302098 101.661 167.3600
4762.565324 101.275 168.9769
4797.076835 100.908 171.1399
4831.838432 100.578 173.8552
4866.851925 100.303 177.0877
4902.119140 100.099 -179.2507
4937.641916 99.985 -175.3035
4973.422105 99.968 -171.2577
5009.461572 100.054 -167.3161
5045.762195 100.237 -163.6653
5082.325868 100.505 -160.4501
5119.154496 100.842 -157.7645
5156.250000 101.231 -155.6547
5193.614313 101.652 -154.1304
5231.249383 102.090 -153.1760
5269.157173 102.530 -152.7596
5307.339658 102.958 -152.8385
5345.798829 103.364 -153.3626
5384.536691 103.741 -154.2773
5423.555263 104.081 -155.5252
5462.856580 104.380 -157.0485
5502.442691 104.635 -158.7908
5542.315659 104.846 -160.6989
5582.477563 105.013 -162.7241
5622.930497 105.137 -164.8231
5663.676569 105.219 -166.9580
5704.717904 105.262 -169.0955
5746.056642 105.268 -171.2064
5787.694937 105.239 -173.2638
5829.634960 105.179 -175.2433
5871.878898 105.088 -177.1212
5914.428953 104.971 -178.8749
5957.287343 104.829 179.5175
6000.456303 104.664 178.0771
6043.938083 104.481 176.8241
6087.734950 104.282 175.7771
6131.849187 104.069 174.9533
6176.283094 103.846 174.3677
6221.038987 103.617 174.0331
6266.119200 103.383 173.9596
6311.526083 103.150 174.1541
6357.262002 102.919 174.6194
6403.329344 102.697 175.3527
6449.730508 102.487 176.3443
6496.467914 102.293 177.5750
6543.543998 102.121 179.0164
6590.961215 101.975 -179.3696
6638.722037 101.860 -177.6289
6686.828954 101.778 -175.8113
6735.284473 101.731 -173.9672
6784.091120 101.722 -172.1430
6833.251441 101.750 -170.3793
6882.767998 101.814 -168.7098
6932.643372 101.914 -167.1622
6982.880164 102.048 -165.7594
7033.480992 102.212 -164.5200
7084.448495 102.405 -163.4578
7135.785329 102.623 -162.5818
7187.494171 102.860 -161.8966
7239.577717 103.115 -161.4038
7292.038681 103.383 -161.1037
7344.879799 103.661 -160.9969
7398.103826 103.944 -161.0864
7451.713536 104.229 -161.3777
7505.711724 104.510 -161.8789
7560.101205 104.784 -162.5987
7614.884815 105.044 -163.5444
7670.065409 105.283 -164.7192
7725.645865 105.494 -166.1191
7781.629080 105.670 -167.7316
7838.017972 105.803 -169.5335
7894.815481 105.888 -171.4901
7952.024569 105.918 -173.5552
8009.648217 105.889 -175.6709
8067.689429 105.797 -177.7677
8126.151233 105.640 -179.7657
8185.036674 105.419 178.4236
8244.348824 105.137 176.8945
8304.090774 104.801 175.7413
8364.265639 104.420 175.0508
8424.876556 104.008 174.8909
8485.926684 103.583 175.2973
8547.419207 103.164 176.2582
8609.357330 102.775 177.7040
8671.744282 102.437 179.5081
8734.583316 102.167 -178.4980
8797.877707 101.977 -176.4947
8861.630756 101.869 -174.6433
8925.845785 101.837 -173.0625
8990.526143 101.870 -171.8208
9055.675202 101.955 -170.9420
9121.296357 102.076 -170.4181
9187.393031 102.221 -170.2232
9253.968668 102.377 -170.3234
9321.026740 102.536 -170.6844
9388.570742 102.691 -171.2749
9456.604196 102.836 -172.0690
9525.130648 102.967 -173.0464
9594.153671 103.081 -174.1917
9663.676863 103.175 -175.4941
9733.703850 103.247 -176.9452
9804.238280 103.295 -178.5390
9875.283832 103.318 179.7302
9946.844210 103.315 177.8681
10018.923143 103.286 175.8818
10091.524390 103.229 173.7803
10164.651736 103.145 171.5748
10238.308993 103.035 169.2780
10312.500000 102.900 166.9040
10387.228626 102.740 164.4669
10462.498767 102.556 161.9799
10538.314345 102.352 159.4547
10614.679315 102.128 156.9009
10691.597657 101.886 154.3262
10769.073381 101.625 151.7362
10847.110526 101.347 149.1357
10925.713161 101.052 146.5280
11004.885382 100.738 143.9156
11084.631318 100.405 141.3001
11164.955126 100.053 138.6813
11245.860993 99.681 136.0568
11327.353138 99.289 133.4208
11409.435808 98.880 130.7630
11492.113283 98.454 128.0675
11575.389873 98.014 125.3121
11659.269920 97.565 122.4680
11743.757796 97.110 119.5010
11828.857906 96.651 116.3729
11914.574686 96.193 113.0439
12000.912606 95.736 109.4752
12087.876166 95.281 105.6317
12175.469900 94.828 101.4840
12263.698373 94.372 97.0095
12352.566187 93.911 92.1928
12442.077974 93.439 87.0256
12532.238400 92.952 81.5055
12623.052165 92.446 75.6350
12714.524005 91.918 69.4211
12806.658687 91.367 62.8760
12899.461015 90.793 56.0183
12992.935827 90.200 48.8781
13087.087996 89.591 41.4997
13181.922430 88.975 33.9472
13277.444074 88.359 26.3049
13373.657907 87.756 18.6733
13470.568945 87.179 11.1589
13568.182241 86.640 3.8605
13666.502883 86.152 -3.1440
13765.535996 85.727 -9.8062
13865.286744 85.368 -16.1075
13965.760328 85.076 -22.0555
14066.961984 84.843 -27.6741
14168.896989 84.658 -32.9946
14271.570658 84.506 -38.0476
14374.988342 84.370 -42.8579
14479.155433 84.235 -47.4409
14584.077362 84.086 -51.8015
14689.759598 83.913 -55.9338
14796.207652 83.707 -59.8217
14903.427072 83.462 -63.4408
15011.423448 83.176 -66.7610
15120.202410 82.849 -69.7495
15229.769630 82.484 -72.3741
15340.130819 82.087 -74.6058
15451.291730 81.666 -76.4186
15563.258160 81.231 -77.7886
15676.035944 80.795 -78.6891
15789.630962 80.372 -79.0858
15904.049137 79.982 -78.9324
16019.296433 79.649 -78.1718
16135.378859 79.400 -76.7461
16252.302465 79.266 -74.6241
16370.073348 79.276 -71.8452
16488.697648 79.446 -68.5706
16608.181548 79.776 -65.1108
16728.531278 80.248 -61.8923
16849.753112 80.828 -59.3564
16971.853368 81.475 -57.8472
17094.838414 82.151 -57.5519
17218.714660 82.823 -58.5095
17343.488565 83.464 -60.6570
17469.166632 84.055 -63.8774
17595.755415 84.581 -68.0333
17723.261512 85.033 -72.9865
17851.691571 85.403 -78.6056
17981.052287 85.689 -84.7708
18111.350404 85.889 -91.3728
18242.592715 86.003 -98.3137
18374.786062 86.033 -105.5038
18507.937336 85.980 -112.8588
18642.053479 85.847 -120.2946
18777.141484 85.637 -127.7224
18913.208391 85.356 -135.0432
19050.261296 85.009 -142.1417
19188.307342 84.609 -148.8840
19327.353727 84.171 -155.1171
19467.407699 83.718 -160.6728
19608.476560 83.282 -165.3790
19750.567664 82.899 -169.0732
19893.688419 82.612 -171.6190
20037.846286 82.458 -172.9177
