* Measurement data measured by REW V5.31.3
* Source: EXCL: Headset (USB-C to 3.5mm Headphone Jack Adapter), MICROPHONE (Master Volume), 0, volume: 0.260
* Format: 256k Log Swept Sine, 1 sweep at -12.0 dBFS with no timing reference
* Dated: Feb 9, 2025 9:18:48 PM
* REW Settings:
*  C-weighting compensation: Off
*  Target level: 75.0 dB
* Note: ; 
* Measurement: KSC75 L6
* Smoothing: 1/6 octave
* Frequency Step: 96 ppo
* Start Frequency: 20.0 Hz
*
* Freq(Hz) SPL(dB) Phase(degrees)
20.141602 85.556 7.1487
20.287556 85.585 7.1511
20.434568 85.623 7.1480
20.582645 85.668 7.1299
20.731796 85.719 7.0848
20.882027 85.774 6.9976
21.033346 85.830 6.8520
21.185763 85.886 6.6315
21.339284 85.941 6.3214
21.493917 85.993 5.9102
21.649671 86.041 5.3914
21.806553 86.084 4.7642
21.964572 86.121 4.0335
22.123737 86.152 3.2099
22.284054 86.177 2.3090
22.445534 86.196 1.3499
22.608183 86.211 0.3541
22.772012 86.222 -0.6564
22.937027 86.234 -1.6602
23.103238 86.246 -2.6382
23.270654 86.263 -3.5746
23.439282 86.287 -4.4583
23.609133 86.319 -5.2825
23.780215 86.363 -6.0454
23.952536 86.418 -6.7497
24.126106 86.487 -7.4012
24.300934 86.567 -8.0088
24.477028 86.660 -8.5824
24.654399 86.762 -9.1324
24.833055 86.872 -9.6688
25.013005 86.989 -10.2003
25.194260 87.110 -10.7341
25.376828 87.234 -11.2760
25.560719 87.358 -11.8300
25.745942 87.483 -12.3986
25.932508 87.607 -12.9828
26.120426 87.730 -13.5824
26.309705 87.851 -14.1959
26.500356 87.970 -14.8208
26.692388 88.087 -15.4535
26.885812 88.202 -16.0900
27.080638 88.314 -16.7256
27.276876 88.425 -17.3556
27.474535 88.533 -17.9755
27.673627 88.641 -18.5815
27.874161 88.749 -19.1704
28.076149 88.859 -19.7396
28.279600 88.973 -20.2872
28.484526 89.092 -20.8118
28.690937 89.220 -21.3123
28.898843 89.358 -21.7878
29.108256 89.509 -22.2378
29.319186 89.673 -22.6622
29.531645 89.852 -23.0620
29.745644 90.043 -23.4392
29.961193 90.246 -23.7980
30.178304 90.457 -24.1442
30.396989 90.672 -24.4856
30.617258 90.885 -24.8312
30.839123 91.092 -25.1908
31.062596 91.285 -25.5740
31.287688 91.461 -25.9893
31.514412 91.614 -26.4434
31.742778 91.741 -26.9409
31.972800 91.839 -27.4841
32.204488 91.907 -28.0732
32.437855 91.944 -28.7065
32.672913 91.953 -29.3806
32.909674 91.937 -30.0904
33.148151 91.897 -30.8289
33.388356 91.839 -31.5872
33.630302 91.766 -32.3542
33.874001 91.682 -33.1173
34.119466 91.591 -33.8627
34.366710 91.498 -34.5769
34.615745 91.404 -35.2484
34.866585 91.314 -35.8693
35.119243 91.231 -36.4371
35.373731 91.156 -36.9546
35.630064 91.093 -37.4305
35.888254 91.044 -37.8775
36.148315 91.010 -38.3107
36.410261 90.993 -38.7449
36.674104 90.995 -39.1921
36.939860 91.015 -39.6603
37.207542 91.056 -40.1523
37.477163 91.119 -40.6664
37.748738 91.204 -41.1972
38.022281 91.313 -41.7372
38.297806 91.446 -42.2792
38.575327 91.603 -42.8170
38.854860 91.784 -43.3465
39.136419 91.986 -43.8661
39.420017 92.208 -44.3764
39.705671 92.449 -44.8792
39.993395 92.705 -45.3777
40.283203 92.975 -45.8751
40.575112 93.258 -46.3749
40.869136 93.550 -46.8802
41.165290 93.852 -47.3939
41.463591 94.160 -47.9184
41.764053 94.474 -48.4551
42.066693 94.791 -49.0047
42.371525 95.109 -49.5668
42.678567 95.425 -50.1397
42.987834 95.737 -50.7207
43.299341 96.042 -51.3069
43.613106 96.338 -51.8947
43.929145 96.623 -52.4816
44.247473 96.895 -53.0656
44.568109 97.153 -53.6465
44.891068 97.395 -54.2249
45.216367 97.620 -54.8025
45.544023 97.828 -55.3816
45.874054 98.017 -55.9642
46.206476 98.189 -56.5519
46.541307 98.341 -57.1458
46.878565 98.476 -57.7458
47.218266 98.594 -58.3512
47.560429 98.696 -58.9605
47.905072 98.784 -59.5713
48.252212 98.858 -60.1805
48.601867 98.921 -60.7851
48.954056 98.974 -61.3825
49.308798 99.019 -61.9709
49.666109 99.058 -62.5501
50.026010 99.092 -63.1210
50.388520 99.124 -63.6855
50.753656 99.155 -64.2459
51.121437 99.186 -64.8045
51.491884 99.219 -65.3630
51.865016 99.254 -65.9230
52.240851 99.292 -66.4854
52.619410 99.334 -67.0511
53.000712 99.379 -67.6207
53.384777 99.428 -68.1946
53.771625 99.480 -68.7729
54.161276 99.533 -69.3556
54.553751 99.588 -69.9426
54.949070 99.642 -70.5337
55.347254 99.694 -71.1283
55.748323 99.745 -71.7257
56.152298 99.792 -72.3253
56.559201 99.836 -72.9265
56.969052 99.876 -73.5292
57.381873 99.913 -74.1337
57.797686 99.946 -74.7409
58.216512 99.976 -75.3523
58.638373 100.004 -75.9691
59.063291 100.030 -76.5929
59.491288 100.055 -77.2244
59.922386 100.080 -77.8639
60.356608 100.105 -78.5110
60.793977 100.131 -79.1646
61.234515 100.157 -79.8229
61.678246 100.183 -80.4841
62.125192 100.209 -81.1466
62.575377 100.236 -81.8093
63.028824 100.264 -82.4713
63.485557 100.292 -83.1324
63.945599 100.322 -83.7927
64.408975 100.353 -84.4523
64.875709 100.385 -85.1114
65.345825 100.420 -85.7703
65.819348 100.458 -86.4294
66.296302 100.498 -87.0895
66.776713 100.541 -87.7514
67.260604 100.586 -88.4160
67.748002 100.634 -89.0844
68.238932 100.685 -89.7571
68.733420 100.737 -90.4345
69.231490 100.792 -91.1166
69.733170 100.849 -91.8031
70.238485 100.907 -92.4935
70.747463 100.966 -93.1874
71.260128 101.027 -93.8844
71.776508 101.088 -94.5841
72.296630 101.151 -95.2863
72.820521 101.214 -95.9911
73.348209 101.278 -96.6987
73.879720 101.343 -97.4092
74.415083 101.407 -98.1228
74.954326 101.472 -98.8397
75.497475 101.535 -99.5600
76.044561 101.598 -100.2835
76.595612 101.659 -101.0101
77.150655 101.718 -101.7396
77.709720 101.775 -102.4717
78.272837 101.828 -103.2065
78.840034 101.878 -103.9437
79.411342 101.923 -104.6834
79.986789 101.965 -105.4256
80.566406 102.002 -106.1702
81.150224 102.035 -106.9172
81.738272 102.064 -107.6661
82.330581 102.089 -108.4168
82.927182 102.112 -109.1687
83.528107 102.135 -109.9217
84.133386 102.158 -110.6756
84.743051 102.185 -111.4303
85.357134 102.217 -112.1858
85.975667 102.259 -112.9421
86.598682 102.314 -113.6988
87.226212 102.384 -114.4557
87.858289 102.473 -115.2122
88.494946 102.583 -115.9675
89.136217 102.715 -116.7211
89.782135 102.870 -117.4723
90.432733 103.046 -118.2205
91.088046 103.240 -118.9651
91.748108 103.449 -119.7056
92.412952 103.668 -120.4412
93.082615 103.892 -121.1714
93.757130 104.116 -121.8957
94.436533 104.335 -122.6139
95.120859 104.544 -123.3260
95.810144 104.740 -124.0319
96.504423 104.919 -124.7317
97.203734 105.081 -125.4250
97.908112 105.224 -126.1117
98.617595 105.350 -126.7914
99.332219 105.459 -127.4638
100.052021 105.553 -128.1284
100.777039 105.635 -128.7854
101.507311 105.707 -129.4350
102.242875 105.770 -130.0777
102.983769 105.827 -130.7145
103.730032 105.878 -131.3464
104.481702 105.925 -131.9745
105.238820 105.967 -132.5999
106.001424 106.004 -133.2235
106.769554 106.034 -133.8457
107.543250 106.055 -134.4671
108.322553 106.067 -135.0878
109.107503 106.067 -135.7077
109.898141 106.053 -136.3269
110.694508 106.027 -136.9453
111.496646 105.986 -137.5629
112.304596 105.932 -138.1798
113.118402 105.866 -138.7960
113.938104 105.789 -139.4113
114.763747 105.704 -140.0255
115.595372 105.612 -140.6384
116.433024 105.517 -141.2492
117.276746 105.420 -141.8577
118.126581 105.323 -142.4633
118.982575 105.227 -143.0656
119.844772 105.134 -143.6645
120.713217 105.043 -144.2597
121.587954 104.954 -144.8512
122.469031 104.866 -145.4389
123.356492 104.779 -146.0230
124.250384 104.691 -146.6036
125.150753 104.600 -147.1808
126.057647 104.506 -147.7548
126.971113 104.406 -148.3258
127.891198 104.300 -148.8938
128.817950 104.186 -149.4590
129.751418 104.066 -150.0215
130.691651 103.939 -150.5813
131.638696 103.806 -151.1383
132.592604 103.668 -151.6924
133.553425 103.528 -152.2433
134.521208 103.388 -152.7904
135.496004 103.252 -153.3332
136.477864 103.122 -153.8712
137.466839 103.003 -154.4039
138.462981 102.897 -154.9306
139.466340 102.806 -155.4512
140.476971 102.733 -155.9653
141.494925 102.678 -156.4729
142.520256 102.641 -156.9737
143.553016 102.620 -157.4678
144.593260 102.611 -157.9550
145.641043 102.612 -158.4353
146.696418 102.618 -158.9085
147.759441 102.626 -159.3745
148.830166 102.632 -159.8331
149.908651 102.633 -160.2841
150.994951 102.628 -160.7273
152.089123 102.615 -161.1625
153.191223 102.595 -161.5892
154.301310 102.567 -162.0073
155.419441 102.533 -162.4164
156.545674 102.496 -162.8163
157.680069 102.455 -163.2068
158.822683 102.414 -163.5877
159.973578 102.374 -163.9590
161.132813 102.335 -164.3206
162.300447 102.300 -164.6727
163.476543 102.268 -165.0155
164.661162 102.241 -165.3491
165.854364 102.218 -165.6741
167.056213 102.201 -165.9910
168.266772 102.188 -166.3005
169.486102 102.182 -166.6035
170.714268 102.181 -166.9014
171.951334 102.187 -167.1958
173.197364 102.199 -167.4888
174.452424 102.218 -167.7828
175.716578 102.242 -168.0803
176.989893 102.272 -168.3842
178.272434 102.306 -168.6971
179.564270 102.343 -169.0217
180.865467 102.381 -169.3602
182.176092 102.418 -169.7144
183.496216 102.453 -170.0853
184.825905 102.485 -170.4733
186.165229 102.513 -170.8782
187.514259 102.535 -171.2986
188.873065 102.552 -171.7331
190.241717 102.564 -172.1792
191.620287 102.571 -172.6342
193.008847 102.573 -173.0953
194.407468 102.572 -173.5595
195.816225 102.568 -174.0237
197.235190 102.560 -174.4851
198.664438 102.549 -174.9412
200.104042 102.536 -175.3895
201.554078 102.519 -175.8279
203.014622 102.499 -176.2547
204.485750 102.476 -176.6684
205.967538 102.448 -177.0678
207.460064 102.417 -177.4521
208.963405 102.382 -177.8211
210.477640 102.344 -178.1746
212.002848 102.302 -178.5128
213.539108 102.257 -178.8361
215.086500 102.210 -179.1451
216.645105 102.161 -179.4404
218.215005 102.110 -179.7230
219.796281 102.058 -179.9937
221.389015 102.004 179.7463
222.993292 101.949 179.4960
224.609193 101.891 179.2545
226.236804 101.829 179.0209
227.876209 101.764 178.7944
229.527494 101.695 178.5743
231.190745 101.621 178.3600
232.866048 101.543 178.1510
234.553491 101.459 177.9468
236.253163 101.372 177.7471
237.965150 101.280 177.5517
239.689544 101.187 177.3606
241.426433 101.091 177.1738
243.175909 100.994 176.9912
244.938062 100.897 176.8127
246.712984 100.802 176.6384
248.500768 100.708 176.4681
250.301507 100.617 176.3019
252.115295 100.530 176.1399
253.942226 100.446 175.9818
255.782396 100.367 175.8277
257.635901 100.294 175.6774
259.502837 100.227 175.5308
261.383301 100.165 175.3876
263.277392 100.111 175.2476
265.185209 100.063 175.1109
267.106850 100.022 174.9774
269.042417 99.987 174.8472
270.992009 99.959 174.7201
272.955729 99.936 174.5961
274.933678 99.918 174.4749
276.925961 99.905 174.3565
278.932681 99.896 174.2406
280.953942 99.889 174.1271
282.989850 99.886 174.0160
285.040511 99.885 173.9072
287.106032 99.887 173.8006
289.186521 99.894 173.6964
291.282086 99.904 173.5942
293.392836 99.920 173.4942
295.518881 99.942 173.3960
297.660333 99.969 173.2995
299.817302 100.002 173.2046
301.989902 100.041 173.1111
304.178245 100.083 173.0191
306.382446 100.127 172.9285
308.602620 100.172 172.8391
310.838882 100.215 172.7512
313.091348 100.256 172.6645
315.360137 100.292 172.5792
317.645367 100.322 172.4952
319.947156 100.344 172.4128
322.265625 100.359 172.3320
324.600895 100.364 172.2529
326.953086 100.360 172.1758
329.322323 100.346 172.1009
331.708729 100.321 172.0283
334.112427 100.286 171.9579
336.533543 100.241 171.8900
338.972204 100.186 171.8244
341.428536 100.122 171.7610
343.902668 100.049 171.6998
346.394729 99.969 171.6406
348.904848 99.884 171.5832
351.433156 99.794 171.5277
353.979786 99.703 171.4739
356.544869 99.613 171.4218
359.128540 99.527 171.3711
361.730934 99.447 171.3218
364.352185 99.376 171.2738
366.992431 99.318 171.2271
369.651810 99.274 171.1816
372.330459 99.246 171.1375
375.028519 99.236 171.0948
377.746130 99.244 171.0538
380.483434 99.270 171.0143
383.240574 99.311 170.9764
386.017693 99.367 170.9404
388.814937 99.433 170.9060
391.632450 99.509 170.8733
394.470380 99.590 170.8424
397.328875 99.674 170.8132
400.208084 99.759 170.7856
403.108157 99.844 170.7598
406.029245 99.926 170.7354
408.971500 100.005 170.7125
411.935076 100.081 170.6908
414.920127 100.154 170.6703
417.926810 100.225 170.6508
420.955280 100.293 170.6324
424.005695 100.361 170.6149
427.078215 100.428 170.5984
430.173000 100.496 170.5830
433.290211 100.563 170.5688
436.430010 100.632 170.5561
439.592562 100.700 170.5448
442.778031 100.766 170.5353
445.986583 100.831 170.5276
449.218386 100.891 170.5217
452.473607 100.946 170.5176
455.752418 100.993 170.5153
459.054987 101.032 170.5145
462.381489 101.062 170.5152
465.732096 101.081 170.5171
469.106983 101.090 170.5201
472.506325 101.088 170.5244
475.930301 101.077 170.5297
479.379088 101.056 170.5362
482.852867 101.028 170.5439
486.351817 100.992 170.5530
489.876123 100.951 170.5634
493.425968 100.905 170.5753
497.001536 100.854 170.5885
500.603014 100.800 170.6032
504.230589 100.742 170.6194
507.884452 100.682 170.6370
511.564792 100.619 170.6562
515.271802 100.552 170.6770
519.005673 100.484 170.6994
522.766602 100.414 170.7234
526.554785 100.344 170.7494
530.370418 100.276 170.7771
534.213700 100.210 170.8067
538.084833 100.150 170.8382
541.984018 100.097 170.8716
545.911457 100.052 170.9067
549.867357 100.016 170.9435
553.851922 99.989 170.9819
557.865362 99.971 171.0218
561.907884 99.961 171.0630
565.979700 99.957 171.1056
570.081022 99.957 171.1497
574.212064 99.959 171.1954
578.373042 99.961 171.2427
582.564171 99.960 171.2918
586.785671 99.956 171.3426
591.037762 99.947 171.3950
595.320665 99.932 171.4489
599.634604 99.910 171.5039
603.979804 99.881 171.5601
608.356491 99.845 171.6170
612.764893 99.803 171.6746
617.205240 99.756 171.7328
621.677763 99.703 171.7917
626.182696 99.647 171.8514
630.720274 99.589 171.9120
635.290733 99.532 171.9740
639.894312 99.476 172.0375
644.531250 99.423 172.1028
649.201789 99.376 172.1701
653.906173 99.336 172.2397
658.644647 99.302 172.3117
663.417457 99.276 172.3863
668.224854 99.256 172.4636
673.067086 99.242 172.5434
677.944408 99.232 172.6258
682.857073 99.225 172.7108
687.805336 99.220 172.7985
692.789457 99.214 172.8889
697.809695 99.207 172.9822
702.866312 99.197 173.0786
707.959571 99.183 173.1780
713.089738 99.165 173.2804
718.257080 99.142 173.3858
723.461867 99.116 173.4940
728.704370 99.085 173.6046
733.984862 99.051 173.7177
739.303619 99.014 173.8330
744.660918 98.975 173.9502
750.057038 98.934 174.0692
755.492260 98.893 174.1896
760.966869 98.851 174.3114
766.481148 98.809 174.4342
772.035387 98.766 174.5579
777.629873 98.721 174.6822
783.264900 98.675 174.8069
788.940760 98.625 174.9321
794.657750 98.572 175.0578
800.416168 98.514 175.1840
806.216313 98.451 175.3108
812.058489 98.381 175.4384
817.943000 98.305 175.5667
823.870152 98.223 175.6957
829.840255 98.135 175.8254
835.853619 98.042 175.9555
841.910559 97.944 176.0861
848.011390 97.843 176.2170
854.156430 97.740 176.3483
860.346000 97.635 176.4799
866.580422 97.531 176.6122
872.860020 97.427 176.7451
879.185124 97.326 176.8787
885.556062 97.228 177.0133
891.973166 97.135 177.1489
898.436771 97.048 177.2855
904.947215 96.968 177.4233
911.504835 96.896 177.5623
918.109975 96.832 177.7026
924.762978 96.778 177.8443
931.464192 96.734 177.9875
938.213966 96.700 178.1322
945.012651 96.676 178.2786
951.860602 96.661 178.4267
958.758176 96.656 178.5769
965.705733 96.659 178.7293
972.703635 96.669 178.8842
979.752246 96.686 179.0416
986.851935 96.710 179.2016
994.003071 96.738 179.3641
1001.206027 96.772 179.5289
1008.461179 96.810 179.6961
1015.768904 96.853 179.8655
1023.129584 96.902 -179.9627
1030.543603 96.957 -179.7884
1038.011347 97.019 -179.6115
1045.533205 97.087 -179.4316
1053.109569 97.163 -179.2487
1060.740836 97.247 -179.0626
1068.427401 97.339 -178.8735
1076.169666 97.437 -178.6815
1083.968035 97.540 -178.4870
1091.822915 97.648 -178.2903
1099.734713 97.759 -178.0915
1107.703844 97.870 -177.8909
1115.730723 97.980 -177.6883
1123.815768 98.087 -177.4838
1131.959400 98.189 -177.2775
1140.162045 98.287 -177.0694
1148.424129 98.379 -176.8598
1156.746083 98.465 -176.6490
1165.128342 98.547 -176.4373
1173.571343 98.624 -176.2248
1182.075524 98.698 -176.0117
1190.641331 98.771 -175.7983
1199.269209 98.842 -175.5845
1207.959608 98.914 -175.3706
1216.712981 98.987 -175.1567
1225.529785 99.061 -174.9432
1234.410479 99.136 -174.7304
1243.355526 99.212 -174.5190
1252.365393 99.288 -174.3096
1261.440549 99.363 -174.1030
1270.581467 99.437 -173.8997
1279.788624 99.508 -173.7000
1289.062500 99.577 -173.5039
1298.403578 99.642 -173.3108
1307.812346 99.703 -173.1201
1317.289293 99.762 -172.9308
1326.834914 99.817 -172.7417
1336.449707 99.869 -172.5521
1346.134173 99.918 -172.3609
1355.888816 99.965 -172.1678
1365.714145 100.010 -171.9720
1375.610673 100.053 -171.7732
1385.578915 100.094 -171.5710
1395.619391 100.133 -171.3648
1405.732624 100.171 -171.1546
1415.919142 100.208 -170.9403
1426.179476 100.244 -170.7223
1436.514160 100.280 -170.5013
1446.923734 100.317 -170.2786
1457.408740 100.356 -170.0553
1467.969724 100.397 -169.8330
1478.607238 100.441 -169.6132
1489.321836 100.489 -169.3973
1500.114076 100.540 -169.1863
1510.984521 100.596 -168.9809
1521.933737 100.655 -168.7809
1532.962297 100.717 -168.5855
1544.070773 100.782 -168.3933
1555.259747 100.849 -168.2022
1566.529800 100.917 -168.0100
1577.881521 100.987 -167.8144
1589.315501 101.057 -167.6134
1600.832336 101.128 -167.4054
1612.432627 101.199 -167.1896
1624.116978 101.270 -166.9657
1635.886000 101.342 -166.7335
1647.740304 101.415 -166.4936
1659.680509 101.488 -166.2469
1671.707238 101.564 -165.9945
1683.821118 101.641 -165.7379
1696.022780 101.721 -165.4787
1708.312860 101.803 -165.2186
1720.692000 101.889 -164.9596
1733.160843 101.977 -164.7036
1745.720041 102.068 -164.4526
1758.370248 102.162 -164.2086
1771.112124 102.258 -163.9730
1783.946332 102.356 -163.7472
1796.873543 102.454 -163.5317
1809.894429 102.552 -163.3272
1823.009670 102.649 -163.1336
1836.219950 102.745 -162.9509
1849.525956 102.840 -162.7783
1862.928384 102.934 -162.6150
1876.427931 103.026 -162.4593
1890.025301 103.117 -162.3093
1903.721204 103.207 -162.1629
1917.516352 103.296 -162.0180
1931.411466 103.384 -161.8732
1945.407270 103.472 -161.7278
1959.504493 103.560 -161.5822
1973.703870 103.646 -161.4375
1988.006142 103.730 -161.2959
2002.412054 103.813 -161.1598
2016.922357 103.892 -161.0327
2031.537808 103.967 -160.9185
2046.259169 104.037 -160.8210
2061.087206 104.102 -160.7435
2076.022694 104.161 -160.6882
2091.066410 104.214 -160.6563
2106.219139 104.261 -160.6483
2121.481671 104.303 -160.6641
2136.854802 104.340 -160.7031
2152.339333 104.374 -160.7646
2167.936071 104.405 -160.8475
2183.645829 104.435 -160.9510
2199.469427 104.466 -161.0744
2215.407689 104.498 -161.2175
2231.461446 104.533 -161.3801
2247.631536 104.571 -161.5622
2263.918800 104.612 -161.7639
2280.324089 104.658 -161.9854
2296.848258 104.708 -162.2279
2313.492167 104.763 -162.4931
2330.256685 104.822 -162.7836
2347.142685 104.884 -163.1026
2364.151049 104.951 -163.4535
2381.282662 105.020 -163.8400
2398.538418 105.092 -164.2658
2415.919216 105.165 -164.7337
2433.425962 105.240 -165.2457
2451.059570 105.314 -165.8024
2468.820958 105.389 -166.4032
2486.711052 105.463 -167.0470
2504.730786 105.536 -167.7317
2522.881098 105.608 -168.4549
2541.162934 105.680 -169.2142
2559.577248 105.752 -170.0077
2578.125000 105.825 -170.8340
2596.807157 105.899 -171.6928
2615.624692 105.976 -172.5844
2634.578586 106.054 -173.5090
2653.669829 106.135 -174.4672
2672.899414 106.218 -175.4581
2692.268345 106.302 -176.4794
2711.777632 106.387 -177.5275
2731.428290 106.472 -178.5975
2751.221345 106.555 -179.6843
2771.157829 106.636 179.2174
2791.238781 106.712 178.1129
2811.465248 106.783 177.0069
2831.838284 106.846 175.9041
2852.358952 106.901 174.8092
2873.028321 106.944 173.7274
2893.847468 106.977 172.6638
2914.817480 106.996 171.6232
2935.939449 107.002 170.6095
2957.214476 106.994 169.6249
2978.643672 106.973 168.6699
3000.228152 106.940 167.7431
3021.969041 106.894 166.8405
3043.867475 106.836 165.9562
3065.924593 106.767 165.0823
3088.141547 106.688 164.2105
3110.519493 106.599 163.3325
3133.059600 106.500 162.4409
3155.763041 106.390 161.5298
3178.631001 106.271 160.5941
3201.664672 106.141 159.6291
3224.865254 106.002 158.6302
3248.233957 105.852 157.5919
3271.771999 105.692 156.5076
3295.480608 105.521 155.3699
3319.361019 105.337 154.1725
3343.414477 105.138 152.9116
3367.642236 104.920 151.5880
3392.045560 104.679 150.2097
3416.625721 104.410 148.7938
3441.383999 104.108 147.3692
3466.321686 103.767 145.9787
3491.440082 103.383 144.6791
3516.740496 102.953 143.5430
3542.224247 102.475 142.6593
3567.892664 101.951 142.1364
3593.747085 101.383 142.1059
3619.788858 100.780 142.7321
3646.019340 100.155 144.2243
3672.439900 99.525 146.8529
3699.051913 98.919 150.9554
3725.856768 98.371 156.9094
3752.855862 97.926 165.0158
3780.050603 97.629 175.2374
3807.442408 97.517 -173.1084
3835.032705 97.605 -161.3045
3862.822933 97.889 -150.6219
3890.814540 98.338 -141.7351
3919.008986 98.915 -134.7120
3947.407741 99.580 -129.3201
3976.012284 100.300 -125.2649
4004.824108 101.047 -122.2896
4033.844715 101.803 -120.1935
4063.075616 102.553 -118.8240
4092.518337 103.287 -118.0639
4122.174412 103.999 -117.8221
4152.045387 104.684 -118.0264
4182.132820 105.338 -118.6192
4212.438278 105.958 -119.5529
4242.963342 106.542 -120.7875
4273.709604 107.089 -122.2873
4304.678665 107.596 -124.0200
4335.872141 108.061 -125.9550
4367.291658 108.485 -128.0630
4398.938854 108.865 -130.3157
4430.815378 109.201 -132.6850
4462.922893 109.491 -135.1435
4495.263072 109.736 -137.6637
4527.837601 109.936 -140.2177
4560.648179 110.090 -142.7777
4593.696515 110.201 -145.3166
4626.984334 110.269 -147.8090
4660.513370 110.298 -150.2328
4694.285371 110.291 -152.5697
4728.302098 110.251 -154.8059
4762.565324 110.181 -156.9313
4797.076835 110.084 -158.9390
4831.838432 109.964 -160.8242
4866.851925 109.822 -162.5822
4902.119140 109.662 -164.2078
4937.641916 109.484 -165.6947
4973.422105 109.290 -167.0348
5009.461572 109.083 -168.2185
5045.762195 108.865 -169.2351
5082.325868 108.637 -170.0737
5119.154496 108.403 -170.7239
5156.250000 108.167 -171.1771
5193.614313 107.930 -171.4269
5231.249383 107.698 -171.4704
5269.157173 107.473 -171.3087
5307.339658 107.261 -170.9475
5345.798829 107.064 -170.3969
5384.536691 106.887 -169.6710
5423.555263 106.732 -168.7863
5462.856580 106.601 -167.7604
5502.442691 106.499 -166.6112
5542.315659 106.426 -165.3575
5582.477563 106.385 -164.0207
5622.930497 106.380 -162.6268
5663.676569 106.412 -161.2068
5704.717904 106.482 -159.7957
5746.056642 106.590 -158.4292
5787.694937 106.734 -157.1414
5829.634960 106.913 -155.9622
5871.878898 107.122 -154.9167
5914.428953 107.357 -154.0251
5957.287343 107.612 -153.3021
6000.456303 107.883 -152.7571
6043.938083 108.163 -152.3935
6087.734950 108.446 -152.2093
6131.849187 108.728 -152.1974
6176.283094 109.003 -152.3475
6221.038987 109.268 -152.6478
6266.119200 109.520 -153.0860
6311.526083 109.754 -153.6497
6357.262002 109.969 -154.3258
6403.329344 110.163 -155.1001
6449.730508 110.334 -155.9575
6496.467914 110.481 -156.8821
6543.543998 110.604 -157.8585
6590.961215 110.704 -158.8709
6638.722037 110.782 -159.9039
6686.828954 110.838 -160.9425
6735.284473 110.876 -161.9716
6784.091120 110.896 -162.9775
6833.251441 110.904 -163.9481
6882.767998 110.901 -164.8739
6932.643372 110.892 -165.7486
6982.880164 110.881 -166.5695
7033.480992 110.871 -167.3382
7084.448495 110.866 -168.0607
7135.785329 110.869 -168.7480
7187.494171 110.880 -169.4140
7239.577717 110.900 -170.0747
7292.038681 110.927 -170.7457
7344.879799 110.960 -171.4399
7398.103826 110.996 -172.1653
7451.713536 111.029 -172.9243
7505.711724 111.058 -173.7135
7560.101205 111.078 -174.5252
7614.884815 111.088 -175.3497
7670.065409 111.086 -176.1773
7725.645865 111.071 -177.0005
7781.629080 111.043 -177.8153
7838.017972 111.003 -178.6218
7894.815481 110.949 -179.4238
7952.024569 110.883 179.7723
8009.648217 110.805 178.9590
8067.689429 110.712 178.1298
8126.151233 110.606 177.2802
8185.036674 110.483 176.4104
8244.348824 110.343 175.5260
8304.090774 110.183 174.6390
8364.265639 110.004 173.7677
8424.876556 109.803 172.9355
8485.926684 109.581 172.1701
8547.419207 109.340 171.5013
8609.357330 109.081 170.9586
8671.744282 108.809 170.5680
8734.583316 108.529 170.3499
8797.877707 108.246 170.3165
8861.630756 107.968 170.4705
8925.845785 107.701 170.8050
8990.526143 107.452 171.3031
9055.675202 107.227 171.9393
9121.296357 107.029 172.6816
9187.393031 106.863 173.4936
9253.968668 106.727 174.3377
9321.026740 106.620 175.1777
9388.570742 106.538 175.9815
9456.604196 106.478 176.7241
9525.130648 106.434 177.3882
9594.153671 106.399 177.9650
9663.676863 106.371 178.4525
9733.703850 106.345 178.8544
9804.238280 106.319 179.1780
9875.283832 106.296 179.4300
9946.844210 106.276 179.6129
10018.923143 106.265 179.7217
10091.524390 106.267 179.7407
10164.651736 106.289 179.6418
10238.308993 106.335 179.3851
10312.500000 106.406 178.9228
10387.228626 106.502 178.2047
10462.498767 106.616 177.1858
10538.314345 106.740 175.8322
10614.679315 106.863 174.1266
10691.597657 106.970 172.0707
10769.073381 107.049 169.6851
10847.110526 107.086 167.0078
10925.713161 107.072 164.0916
11004.885382 106.996 161.0004
11084.631318 106.852 157.8056
11164.955126 106.637 154.5816
11245.860993 106.348 151.4019
11327.353138 105.987 148.3356
11409.435808 105.555 145.4451
11492.113283 105.057 142.7844
11575.389873 104.498 140.3993
11659.269920 103.883 138.3273
11743.757796 103.218 136.5984
11828.857906 102.511 135.2354
11914.574686 101.767 134.2538
12000.912606 100.994 133.6606
12087.876166 100.200 133.4528
12175.469900 99.394 133.6128
12263.698373 98.585 134.1052
12352.566187 97.785 134.8717
12442.077974 97.004 135.8305
12532.238400 96.251 136.8790
12623.052165 95.536 137.9052
12714.524005 94.862 138.8045
12806.658687 94.229 139.4995
12899.461015 93.629 139.9578
12992.935827 93.051 140.2039
13087.087996 92.480 140.3240
13181.922430 91.900 140.4691
13277.444074 91.301 140.8560
13373.657907 90.673 141.7710
13470.568945 90.015 143.5676
13568.182241 89.332 146.6423
13666.502883 88.637 151.3495
13765.535996 87.947 157.8129
13865.286744 87.279 165.6707
13965.760328 86.654 174.0082
14066.961984 86.085 -178.2632
14168.896989 85.577 -171.8618
14271.570658 85.130 -166.9570
14374.988342 84.736 -163.3606
14479.155433 84.386 -160.7683
14584.077362 84.070 -158.8969
14689.759598 83.781 -157.5324
14796.207652 83.511 -156.5319
14903.427072 83.256 -155.8087
15011.423448 83.009 -155.3117
15120.202410 82.764 -155.0074
15229.769630 82.514 -154.8647
15340.130819 82.253 -154.8461
15451.291730 81.977 -154.9024
15563.258160 81.683 -154.9701
15676.035944 81.374 -154.9692
15789.630962 81.059 -154.7982
15904.049137 80.754 -154.3257
16019.296433 80.483 -153.3748
16135.378859 80.282 -151.7005
16252.302465 80.193 -148.9601
16370.073348 80.259 -144.6868
16488.697648 80.512 -138.3184
16608.181548 80.959 -129.4217
16728.531278 81.580 -118.2867
16849.753112 82.337 -106.5133
16971.853368 83.183 -96.3901
17094.838414 84.075 -89.3548
17218.714660 84.975 -85.5617
17343.488565 85.857 -84.5262
17469.166632 86.701 -85.6724
17595.755415 87.494 -88.5239
17723.261512 88.228 -92.7223
17851.691571 88.896 -98.0041
17981.052287 89.496 -104.1754
18111.350404 90.029 -111.0948
18242.592715 90.495 -118.6610
18374.786062 90.896 -126.8040
18507.937336 91.234 -135.4764
18642.053479 91.511 -144.6420
18777.141484 91.729 -154.2613
18913.208391 91.890 -164.2688
19050.261296 91.997 -174.5441
19188.307342 92.057 175.1190
19327.353727 92.074 165.0347
19467.407699 92.058 155.6201
19608.476560 92.020 147.3506
19750.567664 91.975 140.6916
19893.688419 91.935 136.0297
20037.846286 91.912 133.6321
