* Measurement data measured by REW V5.31.3
* Source: EXCL: Headset (USB-C to 3.5mm Headphone Jack Adapter), MICROPHONE (Master Volume), 0, volume: 0.260
* Format: 256k Log Swept Sine, 1 sweep at -12.0 dBFS with no timing reference
* Dated: Feb 9, 2025 9:26:20 PM
* REW Settings:
*  C-weighting compensation: Off
*  Target level: 75.0 dB
* Note: ; 
* Measurement: KSC75 R7
* Smoothing: 1/6 octave
* Frequency Step: 96 ppo
* Start Frequency: 20.0 Hz
*
* Freq(Hz) SPL(dB) Phase(degrees)
20.141602 85.874 2.9346
20.287556 85.902 2.7578
20.434568 85.939 2.5204
20.582645 85.979 2.2276
20.731796 86.020 1.8845
20.882027 86.057 1.4955
21.033346 86.088 1.0644
21.185763 86.110 0.5940
21.339284 86.123 0.0867
21.493917 86.126 -0.4551
21.649671 86.119 -1.0288
21.806553 86.104 -1.6313
21.964572 86.082 -2.2589
22.123737 86.054 -2.9069
22.284054 86.024 -3.5702
22.445534 85.993 -4.2437
22.608183 85.964 -4.9217
22.772012 85.941 -5.5997
22.937027 85.926 -6.2733
23.103238 85.920 -6.9395
23.270654 85.928 -7.5962
23.439282 85.949 -8.2425
23.609133 85.985 -8.8781
23.780215 86.037 -9.5032
23.952536 86.105 -10.1180
24.126106 86.186 -10.7225
24.300934 86.281 -11.3160
24.477028 86.387 -11.8973
24.654399 86.501 -12.4648
24.833055 86.623 -13.0166
25.013005 86.749 -13.5513
25.194260 86.877 -14.0679
25.376828 87.006 -14.5671
25.560719 87.134 -15.0509
25.745942 87.260 -15.5226
25.932508 87.383 -15.9873
26.120426 87.501 -16.4508
26.309705 87.615 -16.9191
26.500356 87.723 -17.3979
26.692388 87.825 -17.8919
26.885812 87.921 -18.4040
27.080638 88.011 -18.9355
27.276876 88.096 -19.4856
27.474535 88.177 -20.0523
27.673627 88.255 -20.6324
27.874161 88.333 -21.2225
28.076149 88.414 -21.8194
28.279600 88.501 -22.4203
28.484526 88.597 -23.0234
28.690937 88.705 -23.6279
28.898843 88.828 -24.2332
29.108256 88.966 -24.8393
29.319186 89.121 -25.4458
29.531645 89.292 -26.0522
29.745644 89.478 -26.6571
29.961193 89.676 -27.2592
30.178304 89.881 -27.8566
30.396989 90.091 -28.4479
30.617258 90.300 -29.0321
30.839123 90.504 -29.6090
31.062596 90.698 -30.1792
31.287688 90.878 -30.7445
31.514412 91.039 -31.3069
31.742778 91.179 -31.8689
31.972800 91.293 -32.4328
32.204488 91.381 -33.0006
32.437855 91.442 -33.5735
32.672913 91.474 -34.1518
32.909674 91.479 -34.7351
33.148151 91.459 -35.3220
33.388356 91.416 -35.9105
33.630302 91.353 -36.4981
33.874001 91.274 -37.0821
34.119466 91.184 -37.6596
34.366710 91.087 -38.2281
34.615745 90.987 -38.7856
34.866585 90.890 -39.3308
35.119243 90.798 -39.8635
35.373731 90.716 -40.3844
35.630064 90.648 -40.8951
35.888254 90.595 -41.3978
36.148315 90.560 -41.8953
36.410261 90.545 -42.3901
36.674104 90.550 -42.8847
36.939860 90.577 -43.3812
37.207542 90.627 -43.8814
37.477163 90.698 -44.3870
37.748738 90.792 -44.8996
38.022281 90.909 -45.4209
38.297806 91.047 -45.9525
38.575327 91.206 -46.4958
38.854860 91.385 -47.0516
39.136419 91.582 -47.6198
39.420017 91.796 -48.1991
39.705671 92.026 -48.7875
39.993395 92.269 -49.3819
40.283203 92.526 -49.9792
40.575112 92.794 -50.5760
40.869136 93.073 -51.1700
41.165290 93.360 -51.7592
41.463591 93.656 -52.3428
41.764053 93.958 -52.9204
42.066693 94.264 -53.4924
42.371525 94.571 -54.0598
42.678567 94.879 -54.6237
42.987834 95.184 -55.1858
43.299341 95.484 -55.7479
43.613106 95.776 -56.3119
43.929145 96.059 -56.8795
44.247473 96.330 -57.4519
44.568109 96.588 -58.0298
44.891068 96.830 -58.6133
45.216367 97.057 -59.2016
45.544023 97.266 -59.7937
45.874054 97.457 -60.3882
46.206476 97.629 -60.9837
46.541307 97.783 -61.5785
46.878565 97.918 -62.1713
47.218266 98.035 -62.7614
47.560429 98.136 -63.3483
47.905072 98.220 -63.9330
48.252212 98.291 -64.5168
48.601867 98.350 -65.1021
48.954056 98.398 -65.6914
49.308798 98.439 -66.2869
49.666109 98.474 -66.8899
50.026010 98.505 -67.5004
50.388520 98.534 -68.1176
50.753656 98.561 -68.7397
51.121437 98.589 -69.3647
51.491884 98.617 -69.9906
51.865016 98.648 -70.6159
52.240851 98.682 -71.2396
52.619410 98.718 -71.8609
53.000712 98.758 -72.4796
53.384777 98.801 -73.0958
53.771625 98.847 -73.7097
54.161276 98.895 -74.3222
54.553751 98.944 -74.9343
54.949070 98.994 -75.5471
55.347254 99.044 -76.1621
55.748323 99.093 -76.7809
56.152298 99.139 -77.4048
56.559201 99.184 -78.0347
56.969052 99.226 -78.6713
57.381873 99.265 -79.3143
57.797686 99.301 -79.9630
58.216512 99.334 -80.6158
58.638373 99.364 -81.2708
59.063291 99.391 -81.9260
59.491288 99.415 -82.5792
59.922386 99.436 -83.2289
60.356608 99.454 -83.8742
60.793977 99.471 -84.5154
61.234515 99.487 -85.1532
61.678246 99.502 -85.7892
62.125192 99.517 -86.4249
62.575377 99.534 -87.0617
63.028824 99.551 -87.7007
63.485557 99.571 -88.3427
63.945599 99.592 -88.9887
64.408975 99.616 -89.6392
64.875709 99.643 -90.2946
65.345825 99.672 -90.9551
65.819348 99.705 -91.6206
66.296302 99.741 -92.2910
66.776713 99.781 -92.9656
67.260604 99.823 -93.6438
67.748002 99.868 -94.3246
68.238932 99.916 -95.0072
68.733420 99.965 -95.6907
69.231490 100.017 -96.3749
69.733170 100.071 -97.0600
70.238485 100.126 -97.7466
70.747463 100.182 -98.4355
71.260128 100.240 -99.1275
71.776508 100.298 -99.8229
72.296630 100.357 -100.5218
72.820521 100.416 -101.2237
73.348209 100.476 -101.9282
73.879720 100.536 -102.6347
74.415083 100.595 -103.3426
74.954326 100.654 -104.0520
75.497475 100.713 -104.7629
76.044561 100.771 -105.4756
76.595612 100.827 -106.1907
77.150655 100.881 -106.9085
77.709720 100.933 -107.6295
78.272837 100.982 -108.3536
78.840034 101.028 -109.0807
79.411342 101.070 -109.8105
79.986789 101.107 -110.5425
80.566406 101.141 -111.2763
81.150224 101.170 -112.0114
81.738272 101.196 -112.7475
82.330581 101.219 -113.4845
82.927182 101.239 -114.2223
83.528107 101.259 -114.9613
84.133386 101.280 -115.7014
84.743051 101.305 -116.4429
85.357134 101.337 -117.1858
85.975667 101.377 -117.9300
86.598682 101.431 -118.6754
87.226212 101.501 -119.4218
87.858289 101.590 -120.1690
88.494946 101.700 -120.9167
89.136217 101.832 -121.6647
89.782135 101.988 -122.4127
90.432733 102.165 -123.1601
91.088046 102.362 -123.9069
91.748108 102.573 -124.6526
92.412952 102.795 -125.3969
93.082615 103.022 -126.1396
93.757130 103.250 -126.8804
94.436533 103.472 -127.6189
95.120859 103.684 -128.3550
95.810144 103.883 -129.0883
96.504423 104.066 -129.8186
97.203734 104.231 -130.5455
97.908112 104.377 -131.2689
98.617595 104.506 -131.9885
99.332219 104.618 -132.7045
100.052021 104.715 -133.4169
100.777039 104.798 -134.1257
101.507311 104.871 -134.8310
102.242875 104.935 -135.5329
102.983769 104.992 -136.2312
103.730032 105.042 -136.9259
104.481702 105.088 -137.6169
105.238820 105.127 -138.3045
106.001424 105.160 -138.9886
106.769554 105.185 -139.6696
107.543250 105.201 -140.3478
108.322553 105.206 -141.0231
109.107503 105.199 -141.6958
109.898141 105.178 -142.3657
110.694508 105.143 -143.0328
111.496646 105.093 -143.6971
112.304596 105.029 -144.3583
113.118402 104.953 -145.0165
113.938104 104.867 -145.6715
114.763747 104.771 -146.3229
115.595372 104.669 -146.9705
116.433024 104.563 -147.6140
117.276746 104.456 -148.2531
118.126581 104.348 -148.8877
118.982575 104.242 -149.5176
119.844772 104.138 -150.1427
120.713217 104.036 -150.7629
121.587954 103.938 -151.3781
122.469031 103.841 -151.9884
123.356492 103.745 -152.5938
124.250384 103.648 -153.1943
125.150753 103.549 -153.7898
126.057647 103.446 -154.3803
126.971113 103.338 -154.9654
127.891198 103.225 -155.5450
128.817950 103.104 -156.1187
129.751418 102.976 -156.6864
130.691651 102.842 -157.2481
131.638696 102.701 -157.8040
132.592604 102.556 -158.3541
133.553425 102.409 -158.8988
134.521208 102.263 -159.4383
135.496004 102.120 -159.9729
136.477864 101.984 -160.5030
137.466839 101.858 -161.0285
138.462981 101.747 -161.5497
139.466340 101.651 -162.0664
140.476971 101.574 -162.5787
141.494925 101.515 -163.0866
142.520256 101.474 -163.5900
143.553016 101.450 -164.0891
144.593260 101.438 -164.5841
145.641043 101.437 -165.0751
146.696418 101.441 -165.5625
147.759441 101.448 -166.0465
148.830166 101.452 -166.5275
149.908651 101.453 -167.0056
150.994951 101.446 -167.4809
152.089123 101.433 -167.9536
153.191223 101.412 -168.4236
154.301310 101.383 -168.8911
155.419441 101.350 -169.3561
156.545674 101.312 -169.8187
157.680069 101.272 -170.2793
158.822683 101.231 -170.7380
159.973578 101.191 -171.1949
161.132813 101.153 -171.6503
162.300447 101.117 -172.1044
163.476543 101.084 -172.5575
164.661162 101.054 -173.0096
165.854364 101.028 -173.4611
167.056213 101.005 -173.9121
168.266772 100.985 -174.3627
169.486102 100.969 -174.8131
170.714268 100.957 -175.2632
171.951334 100.948 -175.7130
173.197364 100.943 -176.1625
174.452424 100.941 -176.6115
175.716578 100.943 -177.0599
176.989893 100.947 -177.5072
178.272434 100.952 -177.9528
179.564270 100.957 -178.3961
180.865467 100.962 -178.8359
182.176092 100.964 -179.2710
183.496216 100.963 -179.7000
184.825905 100.958 179.8784
186.165229 100.948 179.4658
187.514259 100.934 179.0634
188.873065 100.915 178.6727
190.241717 100.892 178.2948
191.620287 100.866 177.9307
193.008847 100.838 177.5812
194.407468 100.808 177.2469
195.816225 100.777 176.9282
197.235190 100.746 176.6249
198.664438 100.715 176.3370
200.104042 100.683 176.0640
201.554078 100.651 175.8052
203.014622 100.618 175.5601
204.485750 100.584 175.3277
205.967538 100.548 175.1069
207.460064 100.511 174.8965
208.963405 100.471 174.6951
210.477640 100.428 174.5013
212.002848 100.383 174.3135
213.539108 100.337 174.1309
215.086500 100.289 173.9525
216.645105 100.239 173.7778
218.215005 100.189 173.6062
219.796281 100.137 173.4374
221.389015 100.084 173.2710
222.993292 100.029 173.1068
224.609193 99.972 172.9445
226.236804 99.912 172.7840
227.876209 99.848 172.6250
229.527494 99.780 172.4675
231.190745 99.708 172.3115
232.866048 99.630 172.1567
234.553491 99.548 172.0032
236.253163 99.462 171.8508
237.965150 99.372 171.6995
239.689544 99.279 171.5492
241.426433 99.185 171.4000
243.175909 99.090 171.2518
244.938062 98.996 171.1047
246.712984 98.902 170.9587
248.500768 98.811 170.8138
250.301507 98.722 170.6698
252.115295 98.637 170.5268
253.942226 98.556 170.3848
255.782396 98.479 170.2440
257.635901 98.408 170.1043
259.502837 98.343 169.9661
261.383301 98.284 169.8292
263.277392 98.230 169.6938
265.185209 98.184 169.5599
267.106850 98.144 169.4276
269.042417 98.110 169.2966
270.992009 98.082 169.1671
272.955729 98.060 169.0388
274.933678 98.042 168.9120
276.925961 98.028 168.7866
278.932681 98.018 168.6628
280.953942 98.010 168.5406
282.989850 98.005 168.4203
285.040511 98.002 168.3019
287.106032 98.002 168.1855
289.186521 98.006 168.0711
291.282086 98.013 167.9587
293.392836 98.026 167.8483
295.518881 98.044 167.7398
297.660333 98.068 167.6332
299.817302 98.098 167.5287
301.989902 98.133 167.4263
304.178245 98.171 167.3262
306.382446 98.212 167.2284
308.602620 98.253 167.1331
310.838882 98.293 167.0402
313.091348 98.329 166.9497
315.360137 98.362 166.8616
317.645367 98.388 166.7757
319.947156 98.406 166.6920
322.265625 98.417 166.6102
324.600895 98.419 166.5303
326.953086 98.411 166.4523
329.322323 98.394 166.3762
331.708729 98.366 166.3020
334.112427 98.327 166.2297
336.533543 98.278 166.1593
338.972204 98.220 166.0906
341.428536 98.152 166.0237
343.902668 98.075 165.9585
346.394729 97.992 165.8952
348.904848 97.902 165.8338
351.433156 97.809 165.7745
353.979786 97.713 165.7175
356.544869 97.619 165.6626
359.128540 97.528 165.6099
361.730934 97.443 165.5595
364.352185 97.367 165.5112
366.992431 97.304 165.4652
369.651810 97.255 165.4213
372.330459 97.222 165.3795
375.028519 97.207 165.3395
377.746130 97.210 165.3013
380.483434 97.231 165.2647
383.240574 97.267 165.2295
386.017693 97.317 165.1956
388.814937 97.379 165.1630
391.632450 97.450 165.1317
394.470380 97.526 165.1018
397.328875 97.606 165.0737
400.208084 97.686 165.0475
403.108157 97.766 165.0234
406.029245 97.844 165.0017
408.971500 97.919 164.9822
411.935076 97.991 164.9650
414.920127 98.060 164.9496
417.926810 98.126 164.9360
420.955280 98.190 164.9239
424.005695 98.254 164.9130
427.078215 98.316 164.9033
430.173000 98.380 164.8948
433.290211 98.443 164.8873
436.430010 98.507 164.8812
439.592562 98.570 164.8763
442.778031 98.632 164.8728
445.986583 98.692 164.8709
449.218386 98.748 164.8707
452.473607 98.799 164.8724
455.752418 98.842 164.8760
459.054987 98.876 164.8815
462.381489 98.902 164.8889
465.732096 98.917 164.8981
469.106983 98.921 164.9088
472.506325 98.915 164.9209
475.930301 98.899 164.9341
479.379088 98.875 164.9485
482.852867 98.842 164.9640
486.351817 98.802 164.9807
489.876123 98.757 164.9987
493.425968 98.707 165.0181
497.001536 98.652 165.0390
500.603014 98.594 165.0617
504.230589 98.533 165.0861
507.884452 98.469 165.1123
511.564792 98.401 165.1403
515.271802 98.332 165.1700
519.005673 98.260 165.2014
522.766602 98.186 165.2344
526.554785 98.112 165.2690
530.370418 98.039 165.3053
534.213700 97.970 165.3432
538.084833 97.906 165.3827
541.984018 97.848 165.4237
545.911457 97.799 165.4662
549.867357 97.759 165.5100
553.851922 97.728 165.5551
557.865362 97.706 165.6013
561.907884 97.692 165.6487
565.979700 97.684 165.6974
570.081022 97.680 165.7475
574.212064 97.677 165.7991
578.373042 97.675 165.8524
582.564171 97.670 165.9074
586.785671 97.662 165.9642
591.037762 97.648 166.0228
595.320665 97.629 166.0833
599.634604 97.602 166.1458
603.979804 97.569 166.2104
608.356491 97.529 166.2772
612.764893 97.482 166.3464
617.205240 97.429 166.4181
621.677763 97.372 166.4922
626.182696 97.311 166.5687
630.720274 97.249 166.6477
635.290733 97.187 166.7290
639.894312 97.127 166.8127
644.531250 97.070 166.8984
649.201789 97.020 166.9863
653.906173 96.975 167.0762
658.644647 96.939 167.1678
663.417457 96.909 167.2612
668.224854 96.887 167.3561
673.067086 96.871 167.4525
677.944408 96.859 167.5504
682.857073 96.851 167.6498
687.805336 96.843 167.7510
692.789457 96.836 167.8540
697.809695 96.827 167.9589
702.866312 96.815 168.0657
707.959571 96.800 168.1743
713.089738 96.781 168.2842
718.257080 96.757 168.3953
723.461867 96.729 168.5074
728.704370 96.696 168.6203
733.984862 96.660 168.7340
739.303619 96.622 168.8484
744.660918 96.580 168.9637
750.057038 96.538 169.0800
755.492260 96.494 169.1973
760.966869 96.449 169.3159
766.481148 96.404 169.4360
772.035387 96.357 169.5577
777.629873 96.309 169.6813
783.264900 96.258 169.8068
788.940760 96.205 169.9344
794.657750 96.147 170.0640
800.416168 96.085 170.1956
806.216313 96.018 170.3289
812.058489 95.945 170.4640
817.943000 95.865 170.6005
823.870152 95.779 170.7383
829.840255 95.688 170.8772
835.853619 95.591 171.0169
841.910559 95.490 171.1573
848.011390 95.386 171.2981
854.156430 95.279 171.4393
860.346000 95.171 171.5806
866.580422 95.063 171.7221
872.860020 94.957 171.8638
879.185124 94.852 172.0060
885.556062 94.751 172.1489
891.973166 94.654 172.2928
898.436771 94.563 172.4380
904.947215 94.479 172.5852
911.504835 94.402 172.7347
918.109975 94.334 172.8871
924.762978 94.276 173.0429
931.464192 94.228 173.2023
938.213966 94.190 173.3655
945.012651 94.162 173.5325
951.860602 94.145 173.7030
958.758176 94.137 173.8765
965.705733 94.138 174.0524
972.703635 94.148 174.2301
979.752246 94.164 174.4088
986.851935 94.187 174.5880
994.003071 94.216 174.7670
1001.206027 94.250 174.9454
1008.461179 94.289 175.1232
1015.768904 94.333 175.3001
1023.129584 94.383 175.4763
1030.543603 94.439 175.6518
1038.011347 94.501 175.8267
1045.533205 94.571 176.0012
1053.109569 94.648 176.1753
1060.740836 94.732 176.3489
1068.427401 94.824 176.5223
1076.169666 94.922 176.6952
1083.968035 95.026 176.8679
1091.822915 95.133 177.0402
1099.734713 95.242 177.2125
1107.703844 95.351 177.3847
1115.730723 95.459 177.5572
1123.815768 95.563 177.7302
1131.959400 95.662 177.9039
1140.162045 95.756 178.0784
1148.424129 95.843 178.2538
1156.746083 95.924 178.4301
1165.128342 96.000 178.6072
1173.571343 96.071 178.7856
1182.075524 96.138 178.9655
1190.641331 96.202 179.1474
1199.269209 96.265 179.3318
1207.959608 96.327 179.5196
1216.712981 96.389 179.7114
1225.529785 96.452 179.9078
1234.410479 96.516 -179.8907
1243.355526 96.580 -179.6839
1252.365393 96.644 -179.4718
1261.440549 96.707 -179.2549
1270.581467 96.769 -179.0338
1279.788624 96.829 -178.8092
1289.062500 96.886 -178.5814
1298.403578 96.941 -178.3505
1307.812346 96.992 -178.1161
1317.289293 97.041 -177.8774
1326.834914 97.087 -177.6331
1336.449707 97.131 -177.3820
1346.134173 97.172 -177.1228
1355.888816 97.213 -176.8551
1365.714145 97.253 -176.5788
1375.610673 97.292 -176.2949
1385.578915 97.332 -176.0054
1395.619391 97.371 -175.7132
1405.732624 97.411 -175.4214
1415.919142 97.452 -175.1337
1426.179476 97.494 -174.8536
1436.514160 97.537 -174.5840
1446.923734 97.581 -174.3274
1457.408740 97.626 -174.0851
1467.969724 97.674 -173.8574
1478.607238 97.723 -173.6436
1489.321836 97.775 -173.4417
1500.114076 97.829 -173.2491
1510.984521 97.886 -173.0623
1521.933737 97.945 -172.8783
1532.962297 98.006 -172.6943
1544.070773 98.070 -172.5083
1555.259747 98.136 -172.3189
1566.529800 98.204 -172.1257
1577.881521 98.274 -171.9284
1589.315501 98.344 -171.7270
1600.832336 98.416 -171.5215
1612.432627 98.487 -171.3118
1624.116978 98.560 -171.0980
1635.886000 98.632 -170.8801
1647.740304 98.705 -170.6586
1659.680509 98.779 -170.4342
1671.707238 98.854 -170.2080
1683.821118 98.931 -169.9811
1696.022780 99.009 -169.7549
1708.312860 99.089 -169.5311
1720.692000 99.172 -169.3109
1733.160843 99.256 -169.0956
1745.720041 99.342 -168.8858
1758.370248 99.429 -168.6817
1771.112124 99.517 -168.4824
1783.946332 99.606 -168.2868
1796.873543 99.694 -168.0935
1809.894429 99.782 -167.9012
1823.009670 99.869 -167.7092
1836.219950 99.956 -167.5173
1849.525956 100.042 -167.3264
1862.928384 100.127 -167.1376
1876.427931 100.213 -166.9526
1890.025301 100.298 -166.7724
1903.721204 100.384 -166.5976
1917.516352 100.469 -166.4284
1931.411466 100.555 -166.2644
1945.407270 100.640 -166.1054
1959.504493 100.724 -165.9518
1973.703870 100.808 -165.8047
1988.006142 100.889 -165.6659
2002.412054 100.967 -165.5376
2016.922357 101.041 -165.4218
2031.537808 101.109 -165.3201
2046.259169 101.172 -165.2335
2061.087206 101.229 -165.1624
2076.022694 101.278 -165.1065
2091.066410 101.321 -165.0652
2106.219139 101.358 -165.0382
2121.481671 101.389 -165.0255
2136.854802 101.417 -165.0280
2152.339333 101.442 -165.0470
2167.936071 101.466 -165.0845
2183.645829 101.490 -165.1421
2199.469427 101.516 -165.2213
2215.407689 101.544 -165.3230
2231.461446 101.575 -165.4484
2247.631536 101.610 -165.5987
2263.918800 101.650 -165.7758
2280.324089 101.694 -165.9818
2296.848258 101.742 -166.2193
2313.492167 101.794 -166.4903
2330.256685 101.849 -166.7964
2347.142685 101.906 -167.1383
2364.151049 101.965 -167.5163
2381.282662 102.024 -167.9306
2398.538418 102.083 -168.3808
2415.919216 102.142 -168.8669
2433.425962 102.200 -169.3884
2451.059570 102.257 -169.9455
2468.820958 102.313 -170.5378
2486.711052 102.367 -171.1646
2504.730786 102.419 -171.8247
2522.881098 102.470 -172.5156
2541.162934 102.519 -173.2348
2559.577248 102.566 -173.9795
2578.125000 102.613 -174.7472
2596.807157 102.660 -175.5354
2615.624692 102.707 -176.3417
2634.578586 102.755 -177.1633
2653.669829 102.804 -177.9975
2672.899414 102.856 -178.8412
2692.268345 102.909 -179.6915
2711.777632 102.965 179.4541
2731.428290 103.022 178.5976
2751.221345 103.080 177.7408
2771.157829 103.137 176.8856
2791.238781 103.193 176.0344
2811.465248 103.244 175.1908
2831.838284 103.290 174.3588
2852.358952 103.329 173.5424
2873.028321 103.357 172.7448
2893.847468 103.375 171.9695
2914.817480 103.379 171.2211
2935.939449 103.369 170.5062
2957.214476 103.342 169.8332
2978.643672 103.298 169.2114
3000.228152 103.238 168.6497
3021.969041 103.162 168.1550
3043.867475 103.071 167.7318
3065.924593 102.967 167.3812
3088.141547 102.851 167.1027
3110.519493 102.725 166.8951
3133.059600 102.589 166.7578
3155.763041 102.445 166.6906
3178.631001 102.294 166.6947
3201.664672 102.137 166.7724
3224.865254 101.975 166.9275
3248.233957 101.809 167.1653
3271.771999 101.641 167.4913
3295.480608 101.473 167.9102
3319.361019 101.307 168.4245
3343.414477 101.144 169.0341
3367.642236 100.988 169.7367
3392.045560 100.841 170.5281
3416.625721 100.703 171.4026
3441.383999 100.578 172.3545
3466.321686 100.466 173.3780
3491.440082 100.370 174.4694
3516.740496 100.291 175.6274
3542.224247 100.231 176.8534
3567.892664 100.194 178.1486
3593.747085 100.183 179.5105
3619.788858 100.201 -179.0701
3646.019340 100.252 -177.6106
3672.439900 100.340 -176.1353
3699.051913 100.465 -174.6735
3725.856768 100.629 -173.2573
3752.855862 100.830 -171.9199
3780.050603 101.066 -170.6951
3807.442408 101.335 -169.6171
3835.032705 101.632 -168.7205
3862.822933 101.951 -168.0386
3890.814540 102.287 -167.6009
3919.008986 102.632 -167.4303
3947.407741 102.978 -167.5406
3976.012284 103.318 -167.9355
4004.824108 103.644 -168.6092
4033.844715 103.951 -169.5476
4063.075616 104.233 -170.7300
4092.518337 104.484 -172.1300
4122.174412 104.701 -173.7172
4152.045387 104.880 -175.4580
4182.132820 105.020 -177.3171
4212.438278 105.119 -179.2593
4242.963342 105.177 178.7505
4273.709604 105.192 176.7465
4304.678665 105.166 174.7621
4335.872141 105.098 172.8296
4367.291658 104.991 170.9802
4398.938854 104.845 169.2440
4430.815378 104.663 167.6501
4462.922893 104.445 166.2268
4495.263072 104.194 165.0012
4527.837601 103.913 164.0006
4560.648179 103.604 163.2542
4593.696515 103.269 162.7945
4626.984334 102.912 162.6590
4660.513370 102.537 162.8909
4694.285371 102.150 163.5386
4728.302098 101.759 164.6525
4762.565324 101.374 166.2795
4797.076835 101.008 168.4523
4831.838432 100.678 171.1766
4866.851925 100.401 174.4169
4902.119140 100.197 178.0850
4937.641916 100.079 -177.9615
4973.422105 100.060 -173.9066
5009.461572 100.142 -169.9499
5045.762195 100.321 -166.2752
5082.325868 100.586 -163.0276
5119.154496 100.919 -160.3031
5156.250000 101.305 -158.1509
5193.614313 101.723 -156.5837
5231.249383 102.159 -155.5879
5269.157173 102.596 -155.1322
5307.339658 103.023 -155.1739
5345.798829 103.428 -155.6621
5384.536691 103.803 -156.5414
5423.555263 104.141 -157.7541
5462.856580 104.439 -159.2420
5502.442691 104.694 -160.9492
5542.315659 104.905 -162.8226
5582.477563 105.071 -164.8138
5622.930497 105.194 -166.8793
5663.676569 105.276 -168.9803
5704.717904 105.318 -171.0829
5746.056642 105.322 -173.1568
5787.694937 105.292 -175.1745
5829.634960 105.230 -177.1108
5871.878898 105.138 -178.9420
5914.428953 105.019 179.3544
5957.287343 104.876 177.8002
6000.456303 104.711 176.4158
6043.938083 104.529 175.2207
6087.734950 104.330 174.2328
6131.849187 104.120 173.4685
6176.283094 103.900 172.9420
6221.038987 103.673 172.6655
6266.119200 103.444 172.6481
6311.526083 103.215 172.8961
6357.262002 102.990 173.4112
6403.329344 102.772 174.1899
6449.730508 102.567 175.2220
6496.467914 102.378 176.4894
6543.543998 102.210 177.9653
6590.961215 102.068 179.6133
6638.722037 101.956 -178.6107
6686.828954 101.876 -176.7560
6735.284473 101.832 -174.8726
6784.091120 101.825 -173.0074
6833.251441 101.854 -171.2014
6882.767998 101.920 -169.4886
6932.643372 102.022 -167.8972
6982.880164 102.157 -166.4509
7033.480992 102.323 -165.1690
7084.448495 102.518 -164.0660
7135.785329 102.736 -163.1514
7187.494171 102.975 -162.4296
7239.577717 103.230 -161.9018
7292.038681 103.498 -161.5674
7344.879799 103.775 -161.4267
7398.103826 104.058 -161.4824
7451.713536 104.341 -161.7397
7505.711724 104.622 -162.2063
7560.101205 104.894 -162.8904
7614.884815 105.151 -163.7989
7670.065409 105.388 -164.9342
7725.645865 105.596 -166.2920
7781.629080 105.769 -167.8587
7838.017972 105.899 -169.6107
7894.815481 105.981 -171.5124
7952.024569 106.007 -173.5171
8009.648217 105.975 -175.5659
8067.689429 105.880 -177.5892
8126.151233 105.721 -179.5071
8185.036674 105.499 178.7685
8244.348824 105.217 177.3297
8304.090774 104.883 176.2679
8364.265639 104.506 175.6649
8424.876556 104.100 175.5827
8485.926684 103.684 176.0500
8547.419207 103.276 177.0486
8609.357330 102.900 178.5057
8671.744282 102.574 -179.7041
8734.583316 102.316 -177.7417
8797.877707 102.135 -175.7763
8861.630756 102.033 -173.9572
8925.845785 102.005 -172.3940
8990.526143 102.040 -171.1512
9055.675202 102.125 -170.2533
9121.296357 102.246 -169.6961
9187.393031 102.390 -169.4584
9253.968668 102.545 -169.5110
9321.026740 102.704 -169.8228
9388.570742 102.857 -170.3649
9456.604196 103.001 -171.1121
9525.130648 103.129 -172.0432
9594.153671 103.239 -173.1413
9663.676863 103.329 -174.3934
9733.703850 103.396 -175.7898
9804.238280 103.439 -177.3232
9875.283832 103.457 -178.9877
9946.844210 103.449 179.2223
10018.923143 103.415 177.3130
10091.524390 103.355 175.2924
10164.651736 103.268 173.1702
10238.308993 103.155 170.9581
10312.500000 103.017 168.6694
10387.228626 102.856 166.3178
10462.498767 102.671 163.9163
10538.314345 102.466 161.4765
10614.679315 102.241 159.0082
10691.597657 101.998 156.5189
10769.073381 101.737 154.0144
10847.110526 101.459 151.4987
10925.713161 101.163 148.9750
11004.885382 100.850 146.4448
11084.631318 100.518 143.9087
11164.955126 100.167 141.3654
11245.860993 99.797 138.8118
11327.353138 99.407 136.2412
11409.435808 99.000 133.6430
11492.113283 98.576 131.0012
11575.389873 98.139 128.2939
11659.269920 97.691 125.4933
11743.757796 97.236 122.5655
11828.857906 96.778 119.4729
11914.574686 96.319 116.1759
12000.912606 95.861 112.6355
12087.876166 95.405 108.8158
12175.469900 94.950 104.6862
12263.698373 94.494 100.2223
12352.566187 94.032 95.4070
12442.077974 93.561 90.2299
12532.238400 93.076 84.6869
12623.052165 92.572 78.7794
12714.524005 92.048 72.5144
12806.658687 91.502 65.9051
12899.461015 90.933 58.9733
12992.935827 90.345 51.7543
13087.087996 89.742 44.3004
13181.922430 89.129 36.6859
13277.444074 88.516 29.0063
13373.657907 87.911 21.3734
13470.568945 87.327 13.9028
13568.182241 86.777 6.6991
13666.502883 86.272 -0.1583
13765.535996 85.825 -6.6236
13865.286744 85.440 -12.6851
13965.760328 85.122 -18.3589
14066.961984 84.865 -23.6789
14168.896989 84.659 -28.6865
14271.570658 84.491 -33.4215
14374.988342 84.345 -37.9158
14479.155433 84.204 -42.1903
14584.077362 84.054 -46.2533
14689.759598 83.883 -50.1007
14796.207652 83.681 -53.7168
14903.427072 83.442 -57.0765
15011.423448 83.163 -60.1477
15120.202410 82.844 -62.8950
15229.769630 82.486 -65.2828
15340.130819 82.097 -67.2782
15451.291730 81.683 -68.8521
15563.258160 81.257 -69.9779
15676.035944 80.829 -70.6284
15789.630962 80.417 -70.7703
15904.049137 80.040 -70.3597
16019.296433 79.722 -69.3430
16135.378859 79.490 -67.6666
16252.302465 79.374 -65.3044
16370.073348 79.400 -62.3029
16488.697648 79.585 -58.8325
16608.181548 79.926 -55.2134
16728.531278 80.404 -51.8759
16849.753112 80.986 -49.2571
16971.853368 81.633 -47.6897
17094.838414 82.306 -47.3468
17218.714660 82.973 -48.2554
17343.488565 83.609 -50.3446
17469.166632 84.195 -53.4933
17595.755415 84.716 -57.5635
17723.261512 85.162 -62.4173
17851.691571 85.529 -67.9255
17981.052287 85.811 -73.9701
18111.350404 86.008 -80.4437
18242.592715 86.119 -87.2497
18374.786062 86.146 -94.2990
18507.937336 86.091 -101.5074
18642.053479 85.956 -108.7906
18777.141484 85.745 -116.0594
18913.208391 85.461 -123.2138
19050.261296 85.113 -130.1389
19188.307342 84.710 -136.7023
19327.353727 84.270 -142.7548
19467.407699 83.815 -148.1353
19608.476560 83.377 -152.6813
19750.567664 82.993 -156.2421
19893.688419 82.706 -158.6918
20037.846286 82.552 -159.9404
